Ax,Ay,Az,Gx,Gy,Gz,Ax2,Ay2,Az2,Gx2,Gy2,Gz2,timestamp,Position
0.026855469,-1.050292969,0.161621094,-0.671386719,1.220703125,-0.610351563,-0.51953125,0.650390625,0.5703125,3.41796875,1.159667969,-0.732421875,581000000,1
0.034179688,-1.05078125,0.167480469,-0.915527344,0.854492188,-0.549316406,-0.512695313,0.651367188,0.561523438,2.990722656,1.281738281,-0.305175781,581000000,1
0.033691406,-1.051757813,0.162109375,-0.9765625,0.854492188,-0.48828125,-0.514160156,0.65234375,0.558105469,2.075195313,-0.366210938,-0.427246094,581000000,1
0.029785156,-1.049804688,0.161132813,-1.037597656,1.037597656,-0.427246094,-0.518554688,0.649902344,0.550292969,0.732421875,-3.90625,-0.549316406,581000000,1
0.026367188,-1.049316406,0.165039063,-1.159667969,0.732421875,-0.305175781,-0.505859375,0.652832031,0.553222656,-0.183105469,-4.943847656,-0.061035156,581000000,1
0.033691406,-1.053222656,0.165527344,-1.159667969,0.061035156,-0.366210938,-0.514648438,0.653320313,0.565917969,-0.793457031,-1.892089844,-0.305175781,581000000,1
0.034179688,-1.051757813,0.157714844,-1.159667969,0.427246094,-0.244140625,-0.516601563,0.654296875,0.553222656,-0.732421875,-2.136230469,-0.122070313,581000000,1
0.027832031,-1.05078125,0.157714844,-1.159667969,0.671386719,-0.061035156,-0.493652344,0.654296875,0.546386719,-0.671386719,-2.807617188,0.9765625,581000000,1
0.027832031,-1.049316406,0.160644531,-1.220703125,0,0.061035156,-0.49609375,0.650878906,0.556640625,-0.183105469,0.915527344,0.732421875,581000000,1
0.034179688,-1.054199219,0.162597656,-1.342773438,-0.427246094,0.061035156,-0.504394531,0.650878906,0.559570313,0.122070313,2.319335938,0.427246094,581000000,1
0.033691406,-1.05078125,0.159667969,-1.220703125,0,0.122070313,-0.504394531,0.650390625,0.548828125,-0.366210938,-0.061035156,1.037597656,581000000,1
0.027832031,-1.051757813,0.15625,-0.9765625,0.48828125,0.122070313,-0.509277344,0.652832031,0.538574219,-0.915527344,-1.098632813,1.220703125,581000000,1
0.028808594,-1.053222656,0.157714844,-0.915527344,0.183105469,0.061035156,-0.504394531,0.654785156,0.553222656,-0.732421875,0,1.525878906,581000000,1
0.030761719,-1.054199219,0.158691406,-0.793457031,-0.122070313,0.122070313,-0.490234375,0.645507813,0.567382813,-0.427246094,1.953125,1.708984375,581000000,1
0.031738281,-1.051757813,0.157714844,-0.793457031,0.061035156,0.122070313,-0.504394531,0.650390625,0.55859375,-0.366210938,3.41796875,0.671386719,581000000,1
0.028808594,-1.051269531,0.159667969,-0.854492188,0.122070313,0.183105469,-0.517089844,0.662109375,0.551269531,-0.793457031,1.586914063,-0.305175781,581000000,1
0.029785156,-1.052734375,0.161132813,-0.854492188,-0.183105469,0.366210938,-0.495605469,0.654785156,0.55859375,-1.892089844,-2.258300781,0.366210938,581000000,1
0.030273438,-1.053222656,0.158203125,-0.915527344,-0.48828125,0.427246094,-0.489746094,0.646484375,0.558105469,-2.197265625,-0.671386719,0.671386719,581000000,1
0.029296875,-1.05078125,0.159179688,-0.9765625,-0.305175781,0.427246094,-0.50390625,0.641113281,0.555175781,-2.136230469,2.807617188,0.061035156,581000000,1
0.028808594,-1.051269531,0.157226563,-1.037597656,-0.244140625,0.427246094,-0.496582031,0.641113281,0.5546875,-1.708984375,3.051757813,-0.183105469,581000000,1
0.030273438,-1.052246094,0.159667969,-1.037597656,-0.48828125,0.427246094,-0.484375,0.64453125,0.555175781,-1.220703125,2.685546875,-0.671386719,581000000,1
0.029296875,-1.054199219,0.157226563,-1.037597656,-0.549316406,0.48828125,-0.491210938,0.640625,0.563476563,-1.403808594,4.8828125,-1.647949219,581000000,1
0.025878906,-1.050292969,0.155761719,-0.915527344,-0.610351563,0.549316406,-0.525878906,0.634277344,0.55078125,-1.770019531,7.995605469,-2.746582031,581000000,1
0.026367188,-1.049316406,0.155761719,-0.854492188,-0.793457031,0.427246094,-0.553710938,0.645507813,0.533691406,-1.647949219,6.042480469,-3.173828125,581000000,1
0.029296875,-1.053710938,0.156738281,-0.854492188,-0.793457031,0.305175781,-0.542480469,0.637695313,0.549316406,-2.746582031,1.525878906,-0.9765625,581000000,1
0.03125,-1.056640625,0.156738281,-0.793457031,-0.48828125,0.244140625,-0.561035156,0.628417969,0.558105469,-2.9296875,2.014160156,0.671386719,581000000,1
0.02734375,-1.054199219,0.156738281,-0.671386719,-0.061035156,0.244140625,-0.560546875,0.644042969,0.547851563,-1.708984375,0.549316406,1.403808594,581000000,1
0.024414063,-1.049804688,0.157714844,-0.671386719,-0.366210938,0.244140625,-0.505859375,0.653808594,0.554199219,-0.915527344,-2.746582031,2.136230469,581000000,1
0.02734375,-1.051757813,0.158203125,-0.854492188,-0.793457031,0.305175781,-0.45703125,0.650390625,0.576660156,0.793457031,-0.427246094,1.403808594,582000000,1
0.029296875,-1.053222656,0.156738281,-0.915527344,-0.48828125,0.244140625,-0.458496094,0.63671875,0.584472656,2.9296875,7.080078125,-0.549316406,582000000,1
0.025878906,-1.049804688,0.154785156,-1.037597656,-0.122070313,0.183105469,-0.509765625,0.637695313,0.548828125,4.150390625,9.033203125,-3.295898438,582000000,1
0.025390625,-1.05078125,0.155761719,-1.098632813,-0.183105469,0.244140625,-0.549316406,0.644042969,0.530273438,2.9296875,5.432128906,-4.821777344,582000000,1
0.02734375,-1.0546875,0.157714844,-1.098632813,-0.366210938,0.244140625,-0.568359375,0.645507813,0.543945313,0.48828125,2.624511719,-4.272460938,582000000,1
0.026367188,-1.056640625,0.153320313,-0.915527344,-0.122070313,0.122070313,-0.595214844,0.640136719,0.539550781,-1.525878906,0.854492188,-2.624511719,582000000,1
0.024414063,-1.052246094,0.151855469,-0.732421875,-0.061035156,0.122070313,-0.56640625,0.647460938,0.547363281,-2.624511719,-3.173828125,0.183105469,582000000,1
0.028808594,-1.051269531,0.154785156,-0.610351563,0,-0.061035156,-0.5390625,0.653320313,0.557617188,-2.258300781,-2.9296875,2.258300781,582000000,1
0.025390625,-1.053222656,0.15625,-0.732421875,0.183105469,-0.122070313,-0.533203125,0.655761719,0.554199219,-1.098632813,-1.892089844,3.234863281,582000000,1
0.025390625,-1.049316406,0.15625,-0.793457031,-0.061035156,-0.183105469,-0.526855469,0.648925781,0.551757813,-0.549316406,-3.356933594,3.540039063,582000000,1
0.029296875,-1.051757813,0.158203125,-0.854492188,0.061035156,-0.122070313,-0.528808594,0.627929688,0.537597656,-0.610351563,-4.333496094,3.295898438,582000000,1
0.026367188,-1.053710938,0.155761719,-0.9765625,0.549316406,-0.061035156,-0.521484375,0.629882813,0.528320313,0.549316406,-3.051757813,2.685546875,582000000,1
0.024902344,-1.053222656,0.153320313,-1.037597656,0.549316406,-0.061035156,-0.516113281,0.640136719,0.540527344,1.46484375,-1.586914063,2.136230469,582000000,1
0.026855469,-1.053710938,0.149414063,-0.9765625,0.366210938,-0.061035156,-0.503417969,0.645996094,0.555664063,1.342773438,-1.892089844,2.136230469,582000000,1
0.026367188,-1.052246094,0.150390625,-0.793457031,0.305175781,-0.061035156,-0.508789063,0.639160156,0.561523438,0.732421875,-1.281738281,2.136230469,582000000,1
0.02734375,-1.0546875,0.15234375,-0.671386719,0.244140625,-0.183105469,-0.510742188,0.646972656,0.5546875,0.9765625,-1.159667969,1.647949219,582000000,1
0.025390625,-1.055175781,0.150878906,-0.610351563,0.305175781,-0.183105469,-0.509277344,0.653320313,0.549316406,1.281738281,-0.671386719,1.098632813,582000000,1
0.024902344,-1.052734375,0.153320313,-0.549316406,0.122070313,-0.244140625,-0.51953125,0.656738281,0.556640625,1.342773438,-0.305175781,0.793457031,582000000,1
0.026855469,-1.049316406,0.154296875,-0.671386719,0.061035156,-0.244140625,-0.522949219,0.65625,0.553222656,0.793457031,-2.502441406,0.915527344,582000000,1
0.026855469,-1.052734375,0.155273438,-0.793457031,0.061035156,-0.244140625,-0.500488281,0.6484375,0.544921875,0.183105469,-4.333496094,1.525878906,582000000,1
0.02734375,-1.054199219,0.152832031,-0.793457031,0.244140625,-0.305175781,-0.509277344,0.649414063,0.546386719,0.48828125,-0.854492188,1.098632813,582000000,1
0.026855469,-1.053222656,0.15234375,-0.793457031,0.244140625,-0.244140625,-0.524414063,0.65234375,0.542480469,0.854492188,1.037597656,0.671386719,582000000,1
0.024902344,-1.053710938,0.150878906,-0.732421875,0.061035156,-0.244140625,-0.516601563,0.65234375,0.541015625,0.305175781,-0.244140625,0.671386719,582000000,1
0.024902344,-1.051269531,0.151855469,-0.610351563,-0.061035156,-0.183105469,-0.515136719,0.650878906,0.543457031,-0.244140625,-1.037597656,0.732421875,582000000,1
0.02734375,-1.051757813,0.150878906,-0.549316406,0.122070313,-0.183105469,-0.51171875,0.649414063,0.553222656,-0.366210938,-0.549316406,0.732421875,582000000,1
0.026855469,-1.051757813,0.151367188,-0.48828125,0.244140625,-0.305175781,-0.511230469,0.646972656,0.555175781,-0.610351563,0.48828125,0.671386719,582000000,1
0.025878906,-1.053710938,0.149414063,-0.48828125,0.122070313,-0.305175781,-0.508789063,0.654785156,0.548339844,-0.366210938,0.854492188,0.305175781,582000000,1
0.025878906,-1.053710938,0.153808594,-0.48828125,-0.061035156,-0.244140625,-0.513671875,0.649414063,0.556152344,-0.610351563,1.403808594,0.305175781,582000000,1
0.026367188,-1.0546875,0.15234375,-0.48828125,0.183105469,-0.183105469,-0.5234375,0.652832031,0.557128906,-0.732421875,1.159667969,0.061035156,582000000,1
0.022949219,-1.052246094,0.153808594,-0.48828125,0.366210938,-0.183105469,-0.5234375,0.653808594,0.5546875,-1.342773438,-0.48828125,0.366210938,582000000,1
0.0234375,-1.053710938,0.150390625,-0.48828125,-0.122070313,-0.122070313,-0.520996094,0.653320313,0.543945313,-1.647949219,-1.831054688,0.671386719,582000000,1
0.025878906,-1.050292969,0.151855469,-0.427246094,-0.244140625,-0.183105469,-0.515625,0.6484375,0.547851563,-2.075195313,-1.770019531,1.098632813,582000000,1
0.025390625,-1.052734375,0.149414063,-0.366210938,0.061035156,-0.305175781,-0.512207031,0.642089844,0.550292969,-1.831054688,-0.793457031,1.037597656,582000000,1
0.026367188,-1.052734375,0.150878906,-0.305175781,-0.122070313,-0.305175781,-0.508789063,0.644042969,0.551269531,-0.732421875,0.244140625,0.427246094,582000000,1
0.027832031,-1.054199219,0.150878906,-0.305175781,-0.244140625,-0.305175781,-0.510253906,0.6484375,0.5546875,0.122070313,1.098632813,0.061035156,582000000,1
0.027832031,-1.052734375,0.152832031,-0.305175781,-0.122070313,-0.305175781,-0.528320313,0.651855469,0.543945313,0.061035156,1.220703125,-0.305175781,582000000,1
0.024414063,-1.051757813,0.151855469,-0.48828125,-0.122070313,-0.122070313,-0.525390625,0.648925781,0.539550781,-0.48828125,-0.48828125,-0.122070313,582000000,1
0.026367188,-1.052246094,0.15234375,-0.610351563,-0.122070313,-0.061035156,-0.513183594,0.637695313,0.547363281,-0.793457031,-0.793457031,0.122070313,582000000,1
0.026855469,-1.053710938,0.150390625,-0.610351563,0.061035156,-0.061035156,-0.5078125,0.639648438,0.548339844,-0.183105469,0.549316406,-0.183105469,582000000,1
0.025878906,-1.051757813,0.150878906,-0.610351563,0.244140625,-0.061035156,-0.514160156,0.655761719,0.555175781,0.244140625,1.46484375,-0.549316406,582000000,1
0.025390625,-1.053222656,0.150878906,-0.549316406,0.122070313,-0.061035156,-0.528808594,0.662109375,0.553222656,-0.244140625,0.48828125,-0.732421875,582000000,1
0.024414063,-1.053710938,0.150390625,-0.366210938,-0.122070313,-0.122070313,-0.520996094,0.651855469,0.550292969,-1.037597656,-1.281738281,-0.122070313,582000000,1
0.02734375,-1.054199219,0.15234375,-0.427246094,0,-0.305175781,-0.517089844,0.639648438,0.551269531,-0.915527344,-1.037597656,0.183105469,582000000,1
0.026367188,-1.051269531,0.150878906,-0.427246094,0.305175781,-0.244140625,-0.525390625,0.648925781,0.545410156,-0.244140625,-0.061035156,0.183105469,582000000,1
0.0234375,-1.050292969,0.150390625,-0.610351563,0.244140625,-0.122070313,-0.533203125,0.654785156,0.548339844,-0.48828125,-0.671386719,0.549316406,582000000,1
0.026367188,-1.056152344,0.152832031,-0.610351563,-0.244140625,-0.122070313,-0.521484375,0.649414063,0.556640625,-1.159667969,-2.136230469,1.159667969,582000000,1
0.026855469,-1.055175781,0.150390625,-0.549316406,-0.061035156,-0.183105469,-0.511230469,0.647460938,0.552246094,-1.220703125,-2.014160156,1.46484375,582000000,1
0.0234375,-1.052246094,0.1484375,-0.427246094,0.305175781,-0.244140625,-0.520507813,0.651367188,0.543945313,-0.549316406,-0.9765625,1.098632813,582000000,1
0.024414063,-1.052246094,0.150878906,-0.427246094,0,-0.244140625,-0.517089844,0.646972656,0.55078125,-0.610351563,-1.098632813,1.159667969,582000000,1
0.022949219,-1.052246094,0.151855469,-0.48828125,-0.244140625,-0.244140625,-0.513671875,0.641113281,0.557128906,-0.854492188,-1.403808594,1.159667969,582000000,1
0.024414063,-1.054199219,0.150878906,-0.549316406,-0.305175781,-0.244140625,-0.513183594,0.640625,0.550292969,-0.366210938,-0.915527344,0.732421875,583000000,1
0.026855469,-1.0546875,0.150390625,-0.610351563,0,-0.305175781,-0.508300781,0.645996094,0.544433594,0.366210938,-0.427246094,0.610351563,583000000,1
0.026367188,-1.051269531,0.149414063,-0.671386719,0.122070313,-0.244140625,-0.516113281,0.651855469,0.555175781,0.549316406,0.244140625,0.48828125,583000000,1
0.026367188,-1.0546875,0.149902344,-0.915527344,-0.061035156,-0.183105469,-0.524902344,0.647949219,0.561035156,0.183105469,-0.366210938,0.427246094,583000000,1
0.025878906,-1.053710938,0.149902344,-0.915527344,-0.183105469,-0.122070313,-0.510742188,0.64453125,0.55078125,0.183105469,-1.647949219,0.549316406,583000000,1
0.024902344,-1.052246094,0.147949219,-0.854492188,-0.122070313,-0.061035156,-0.510742188,0.648925781,0.547363281,0.305175781,-0.915527344,0.366210938,583000000,1
0.0234375,-1.053710938,0.1484375,-0.732421875,-0.244140625,-0.122070313,-0.51953125,0.649414063,0.551757813,0,-0.48828125,0.244140625,583000000,1
0.025390625,-1.055175781,0.149414063,-0.610351563,-0.48828125,-0.305175781,-0.517089844,0.645507813,0.55859375,-0.244140625,-0.732421875,0.610351563,583000000,1
0.026855469,-1.054199219,0.147949219,-0.48828125,-0.305175781,-0.366210938,-0.512695313,0.643066406,0.554199219,0,-0.610351563,0.610351563,583000000,1
0.022949219,-1.052734375,0.146972656,-0.48828125,0,-0.305175781,-0.517578125,0.648925781,0.547363281,0.305175781,-0.9765625,0.366210938,583000000,1
0.026855469,-1.055175781,0.150878906,-0.48828125,-0.061035156,-0.305175781,-0.513183594,0.653808594,0.551269531,0.549316406,-1.037597656,0.427246094,583000000,1
0.02734375,-1.051757813,0.147949219,-0.610351563,0.183105469,-0.366210938,-0.51171875,0.650390625,0.557617188,0.793457031,-0.244140625,0.48828125,583000000,1
0.0234375,-1.053222656,0.145019531,-0.48828125,0.305175781,-0.366210938,-0.516601563,0.650878906,0.549804688,1.220703125,0,0.427246094,583000000,1
0.026855469,-1.055175781,0.146972656,-0.427246094,0.122070313,-0.427246094,-0.517578125,0.650390625,0.545898438,0.9765625,-0.610351563,0.48828125,583000000,1
0.026855469,-1.051757813,0.149414063,-0.305175781,0.061035156,-0.427246094,-0.514648438,0.653320313,0.548339844,0.610351563,-1.342773438,0.427246094,583000000,1
0.025878906,-1.053710938,0.150390625,-0.305175781,0.061035156,-0.366210938,-0.518066406,0.651367188,0.550292969,0.183105469,-1.525878906,0.48828125,583000000,1
0.026855469,-1.055175781,0.148925781,-0.244140625,0,-0.305175781,-0.513671875,0.651855469,0.548339844,-0.183105469,-1.403808594,0.427246094,583000000,1
0.025878906,-1.051269531,0.147460938,-0.305175781,0.122070313,-0.305175781,-0.513183594,0.653808594,0.542480469,0,-0.915527344,0.122070313,583000000,1
0.023925781,-1.053710938,0.147949219,-0.366210938,0.183105469,-0.244140625,-0.512207031,0.652832031,0.548828125,0.122070313,-0.610351563,0.122070313,583000000,1
0.024414063,-1.052734375,0.150390625,-0.366210938,0.122070313,-0.244140625,-0.517089844,0.645019531,0.559082031,-0.061035156,0,0.183105469,583000000,1
0.02734375,-1.0546875,0.147949219,-0.366210938,0.183105469,-0.305175781,-0.517578125,0.650878906,0.547851563,-0.061035156,-0.48828125,-0.244140625,583000000,1
0.02734375,-1.0546875,0.147460938,-0.427246094,0.366210938,-0.122070313,-0.512207031,0.654785156,0.54296875,-0.305175781,-1.220703125,-0.183105469,583000000,1
0.024414063,-1.052246094,0.150878906,-0.366210938,0.244140625,-0.183105469,-0.509277344,0.651367188,0.551269531,-0.671386719,-1.037597656,0.061035156,583000000,1
0.026367188,-1.053710938,0.149414063,-0.427246094,-0.122070313,-0.183105469,-0.506835938,0.6484375,0.553710938,-0.48828125,-0.366210938,0,583000000,1
0.025390625,-1.053222656,0.146972656,-0.427246094,0.061035156,-0.183105469,-0.515136719,0.646484375,0.550292969,-0.305175781,1.037597656,-0.183105469,583000000,1
0.024902344,-1.053222656,0.146484375,-0.366210938,0.244140625,-0.183105469,-0.528320313,0.654296875,0.55078125,0,1.220703125,-0.549316406,583000000,1
0.025390625,-1.052734375,0.148925781,-0.366210938,0.122070313,-0.183105469,-0.518554688,0.656738281,0.550292969,-0.244140625,-1.281738281,-0.244140625,583000000,1
0.025878906,-1.053710938,0.146484375,-0.366210938,0,-0.122070313,-0.510742188,0.657226563,0.552246094,-0.549316406,-1.708984375,0.183105469,583000000,1
0.026367188,-1.054199219,0.146484375,-0.427246094,-0.061035156,-0.183105469,-0.514160156,0.653320313,0.548828125,-0.732421875,-0.549316406,0.305175781,583000000,1
0.025390625,-1.054199219,0.146972656,-0.427246094,0.122070313,-0.244140625,-0.520019531,0.649414063,0.545410156,-0.854492188,0.183105469,0.48828125,583000000,1
0.025390625,-1.052734375,0.146972656,-0.427246094,0.061035156,-0.183105469,-0.521972656,0.649902344,0.544921875,-0.793457031,-0.366210938,0.732421875,583000000,1
0.025878906,-1.052734375,0.147460938,-0.427246094,-0.061035156,-0.122070313,-0.522949219,0.649902344,0.545410156,-0.854492188,-0.9765625,1.098632813,583000000,1
0.025878906,-1.0546875,0.145507813,-0.48828125,-0.122070313,-0.061035156,-0.519042969,0.646972656,0.549804688,-1.037597656,-1.098632813,1.281738281,583000000,1
0.024902344,-1.051269531,0.148925781,-0.427246094,0.061035156,-0.122070313,-0.514648438,0.646484375,0.555175781,-0.854492188,-1.098632813,1.281738281,583000000,1
0.024414063,-1.052734375,0.148925781,-0.366210938,-0.061035156,-0.061035156,-0.513671875,0.65234375,0.545410156,-0.48828125,-1.342773438,0.854492188,583000000,1
0.024414063,-1.0546875,0.147949219,-0.48828125,-0.061035156,-0.061035156,-0.508789063,0.648925781,0.552734375,-0.610351563,-0.9765625,0.9765625,583000000,1
0.025878906,-1.055175781,0.146972656,-0.48828125,0,-0.122070313,-0.515625,0.642089844,0.554199219,-0.427246094,-0.366210938,0.854492188,583000000,1
0.024902344,-1.055175781,0.145507813,-0.427246094,0.122070313,-0.183105469,-0.516113281,0.645019531,0.549316406,0,-0.9765625,0.671386719,583000000,1
0.022949219,-1.052734375,0.145507813,-0.48828125,0.122070313,-0.122070313,-0.511230469,0.649902344,0.547851563,0.122070313,-1.159667969,0.671386719,583000000,1
0.024902344,-1.0546875,0.1484375,-0.549316406,0,-0.122070313,-0.513671875,0.651367188,0.552246094,0.305175781,-0.183105469,0.48828125,583000000,1
0.024902344,-1.0546875,0.145996094,-0.48828125,0,-0.183105469,-0.515625,0.654785156,0.544921875,0.244140625,-0.610351563,0.366210938,583000000,1
0.024902344,-1.053710938,0.145507813,-0.366210938,0,-0.183105469,-0.514648438,0.654296875,0.55078125,-0.183105469,-1.586914063,0.427246094,583000000,1
0.0234375,-1.052734375,0.146972656,-0.305175781,0.122070313,-0.244140625,-0.510742188,0.650390625,0.558105469,-0.366210938,-1.159667969,0.427246094,583000000,1
0.0234375,-1.052734375,0.149414063,-0.305175781,0,-0.244140625,-0.508300781,0.647949219,0.551757813,-0.183105469,-0.305175781,0.244140625,583000000,1
0.024414063,-1.053710938,0.146972656,-0.427246094,-0.122070313,-0.244140625,-0.518066406,0.650390625,0.541503906,-0.122070313,-0.366210938,0.122070313,583000000,1
0.024902344,-1.053710938,0.14453125,-0.366210938,-0.061035156,-0.244140625,-0.515625,0.653808594,0.548828125,-0.061035156,-1.281738281,0.183105469,583000000,1
0.02734375,-1.053222656,0.147949219,-0.427246094,0.122070313,-0.183105469,-0.516601563,0.647460938,0.549804688,-0.427246094,-0.915527344,0.061035156,583000000,1
0.023925781,-1.052734375,0.147460938,-0.48828125,0.183105469,-0.183105469,-0.512207031,0.646972656,0.553222656,-0.244140625,-0.671386719,-0.122070313,583000000,1
0.024414063,-1.055175781,0.144042969,-0.48828125,0.244140625,-0.183105469,-0.517089844,0.65234375,0.549804688,0.244140625,-0.549316406,-0.366210938,583000000,1
0.024902344,-1.052734375,0.14453125,-0.427246094,0.183105469,-0.244140625,-0.515625,0.657714844,0.546875,0.244140625,-1.037597656,-0.183105469,583000000,1
0.0234375,-1.052246094,0.145019531,-0.305175781,0.244140625,-0.305175781,-0.509277344,0.655761719,0.554199219,-0.183105469,-1.037597656,0.305175781,584000000,1
0.022949219,-1.052734375,0.147460938,-0.427246094,0.061035156,-0.244140625,-0.522460938,0.645996094,0.552734375,-0.366210938,-0.122070313,0.366210938,584000000,1
0.026367188,-1.052734375,0.146484375,-0.427246094,0,-0.183105469,-0.51171875,0.650878906,0.542480469,-0.183105469,-1.403808594,0.305175781,584000000,1
0.026367188,-1.055175781,0.145019531,-0.366210938,0.122070313,-0.244140625,-0.502929688,0.655761719,0.54296875,-0.183105469,-0.9765625,0.183105469,584000000,1
0.023925781,-1.053222656,0.14453125,-0.366210938,0.366210938,-0.305175781,-0.51171875,0.652832031,0.561523438,-0.366210938,0.854492188,0.183105469,584000000,1
0.0234375,-1.054199219,0.145507813,-0.366210938,0.122070313,-0.244140625,-0.52734375,0.645996094,0.557128906,-0.305175781,0.9765625,-0.122070313,584000000,1
0.025878906,-1.053710938,0.147460938,-0.427246094,-0.061035156,-0.183105469,-0.515136719,0.653808594,0.536621094,-0.183105469,-1.342773438,-0.061035156,584000000,1
0.025878906,-1.054199219,0.146484375,-0.366210938,0.122070313,-0.305175781,-0.508300781,0.657226563,0.547363281,-0.48828125,-0.9765625,0.244140625,584000000,1
0.022949219,-1.051269531,0.145019531,-0.366210938,0.244140625,-0.244140625,-0.51953125,0.65234375,0.561035156,-0.732421875,0.244140625,0.549316406,584000000,1
0.022460938,-1.053222656,0.147949219,-0.366210938,0.122070313,-0.244140625,-0.512695313,0.650390625,0.551757813,-0.671386719,-0.9765625,0.732421875,584000000,1
0.025390625,-1.053710938,0.145507813,-0.305175781,-0.244140625,-0.183105469,-0.509765625,0.655273438,0.538085938,-0.305175781,-0.366210938,0.244140625,584000000,1
0.026855469,-1.056152344,0.147949219,-0.305175781,-0.122070313,-0.244140625,-0.517578125,0.65625,0.547363281,-0.366210938,0.366210938,0,584000000,1
0.024902344,-1.055175781,0.145507813,-0.427246094,0.183105469,-0.183105469,-0.521972656,0.644042969,0.557617188,-0.915527344,-0.244140625,0.183105469,584000000,1
0.023925781,-1.05078125,0.14453125,-0.427246094,-0.061035156,-0.061035156,-0.512207031,0.642089844,0.552246094,-0.732421875,-0.549316406,0.427246094,584000000,1
0.022949219,-1.052246094,0.146484375,-0.427246094,-0.244140625,-0.122070313,-0.516601563,0.654785156,0.543457031,-0.305175781,0.366210938,0.305175781,584000000,1
0.024414063,-1.0546875,0.145507813,-0.549316406,-0.061035156,-0.183105469,-0.526367188,0.65625,0.555175781,-0.732421875,0,0.671386719,584000000,1
0.026367188,-1.057128906,0.144042969,-0.427246094,0,-0.244140625,-0.518554688,0.647460938,0.557617188,-0.793457031,-0.610351563,1.037597656,584000000,1
0.024902344,-1.052734375,0.14453125,-0.427246094,0.061035156,-0.244140625,-0.512207031,0.645996094,0.551757813,-0.732421875,-0.671386719,0.9765625,584000000,1
0.024414063,-1.051269531,0.147949219,-0.48828125,-0.061035156,-0.183105469,-0.513183594,0.646972656,0.551757813,-0.549316406,-0.915527344,0.854492188,584000000,1
0.024902344,-1.053222656,0.147460938,-0.549316406,-0.061035156,-0.244140625,-0.511230469,0.650878906,0.554199219,-0.122070313,-0.732421875,0.732421875,584000000,1
0.026367188,-1.055664063,0.146972656,-0.732421875,-0.061035156,-0.244140625,-0.516113281,0.650878906,0.551269531,0.061035156,0.061035156,0.732421875,584000000,1
0.024902344,-1.054199219,0.145019531,-0.610351563,-0.122070313,-0.244140625,-0.522949219,0.64453125,0.549316406,-0.244140625,-0.244140625,0.793457031,584000000,1
0.026855469,-1.054199219,0.145996094,-0.48828125,-0.244140625,-0.183105469,-0.515625,0.651367188,0.547851563,-0.183105469,-1.708984375,0.793457031,584000000,1
0.024902344,-1.053710938,0.145019531,-0.48828125,-0.061035156,-0.244140625,-0.505371094,0.655761719,0.543945313,-0.183105469,-1.647949219,0.610351563,584000000,1
0.023925781,-1.052246094,0.143066406,-0.48828125,0,-0.244140625,-0.509277344,0.645996094,0.551269531,-0.427246094,-0.48828125,0.671386719,584000000,1
0.024414063,-1.053710938,0.145019531,-0.427246094,0.061035156,-0.366210938,-0.515625,0.645507813,0.551757813,-0.061035156,-0.061035156,0.48828125,584000000,1
0.024414063,-1.053222656,0.147949219,-0.366210938,0.122070313,-0.427246094,-0.513671875,0.651367188,0.549804688,0.244140625,-0.183105469,0.122070313,584000000,1
0.026855469,-1.053222656,0.146484375,-0.48828125,0.183105469,-0.305175781,-0.514160156,0.654296875,0.549804688,0.122070313,-0.427246094,-0.061035156,584000000,1
0.025390625,-1.055175781,0.14453125,-0.366210938,0.366210938,-0.366210938,-0.515136719,0.653320313,0.551757813,-0.183105469,-0.671386719,-0.061035156,584000000,1
0.022460938,-1.052246094,0.143554688,-0.366210938,0.305175781,-0.305175781,-0.510742188,0.649414063,0.547851563,-0.305175781,-0.793457031,0.183105469,584000000,1
0.024414063,-1.052734375,0.144042969,-0.610351563,0.122070313,-0.305175781,-0.507324219,0.647949219,0.549316406,-0.122070313,-0.610351563,0.244140625,584000000,1
0.025390625,-1.056152344,0.145019531,-0.427246094,0.305175781,-0.427246094,-0.514648438,0.651367188,0.553710938,0.122070313,0.061035156,0.122070313,584000000,1
0.0234375,-1.058105469,0.141113281,-0.244140625,0.305175781,-0.366210938,-0.530761719,0.654785156,0.549804688,0.061035156,0.061035156,-0.366210938,584000000,1
0.02734375,-1.052246094,0.145019531,-0.244140625,0.061035156,-0.366210938,-0.518066406,0.654785156,0.547363281,-0.427246094,-1.892089844,-0.427246094,584000000,1
0.025390625,-1.051757813,0.145996094,-0.244140625,0,-0.244140625,-0.51171875,0.65234375,0.551757813,-0.854492188,-1.831054688,-0.183105469,584000000,1
0.025878906,-1.054199219,0.146972656,-0.305175781,0.061035156,-0.122070313,-0.520019531,0.654785156,0.547851563,-0.671386719,-0.48828125,-0.122070313,584000000,1
0.024414063,-1.052734375,0.145019531,-0.305175781,0.122070313,-0.183105469,-0.516601563,0.654785156,0.552734375,-0.9765625,-0.793457031,0.366210938,584000000,1
0.024902344,-1.052246094,0.142578125,-0.244140625,0,-0.183105469,-0.516601563,0.65234375,0.555664063,-1.342773438,-1.46484375,0.549316406,584000000,1
0.024902344,-1.053222656,0.146972656,-0.305175781,-0.183105469,-0.183105469,-0.512695313,0.65234375,0.554199219,-1.281738281,-1.46484375,0.732421875,584000000,1
0.024414063,-1.0546875,0.145019531,-0.366210938,0.122070313,-0.183105469,-0.509765625,0.65234375,0.549316406,-1.098632813,-1.098632813,0.610351563,584000000,1
0.025390625,-1.054199219,0.143066406,-0.366210938,0.244140625,-0.244140625,-0.518066406,0.650390625,0.553222656,-1.159667969,-0.793457031,0.671386719,584000000,1
0.025390625,-1.053222656,0.142089844,-0.305175781,0.183105469,-0.183105469,-0.51953125,0.647949219,0.555664063,-1.159667969,-1.281738281,0.732421875,584000000,1
0.023925781,-1.055175781,0.143066406,-0.244140625,-0.183105469,-0.122070313,-0.500976563,0.650390625,0.546386719,-1.220703125,-2.502441406,0.9765625,584000000,1
0.024902344,-1.053710938,0.145996094,-0.244140625,-0.366210938,-0.244140625,-0.505371094,0.649902344,0.545410156,-1.342773438,-1.220703125,0.793457031,584000000,1
0.025878906,-1.052246094,0.145507813,-0.183105469,0.122070313,-0.244140625,-0.521972656,0.649414063,0.547851563,-1.586914063,0.183105469,0.549316406,584000000,1
0.022460938,-1.053710938,0.14453125,-0.183105469,0.427246094,-0.244140625,-0.51171875,0.6484375,0.55078125,-1.892089844,-1.525878906,0.732421875,584000000,1
0.0234375,-1.054199219,0.145507813,-0.244140625,0.061035156,-0.244140625,-0.5,0.643066406,0.559570313,-1.770019531,-1.342773438,0.610351563,584000000,1
0.026855469,-1.055664063,0.146484375,-0.305175781,-0.183105469,-0.244140625,-0.5078125,0.646484375,0.555175781,-0.793457031,0.610351563,0.122070313,584000000,1
0.024414063,-1.05078125,0.144042969,-0.305175781,0.061035156,-0.244140625,-0.520507813,0.653808594,0.552734375,-0.549316406,0.549316406,0,584000000,1
0.024414063,-1.052734375,0.14453125,-0.305175781,0,-0.183105469,-0.510742188,0.640625,0.55859375,-1.46484375,-1.159667969,0.183105469,584000000,1
0.024902344,-1.056640625,0.145019531,-0.366210938,-0.183105469,-0.061035156,-0.50390625,0.639648438,0.55859375,-1.220703125,-0.793457031,-0.061035156,585000000,1
0.024902344,-1.054199219,0.142578125,-0.244140625,-0.122070313,-0.183105469,-0.508789063,0.65625,0.552734375,-0.549316406,-0.427246094,-0.48828125,585000000,1
0.022460938,-1.0546875,0.143554688,-0.183105469,0,-0.305175781,-0.51171875,0.655761719,0.559570313,-0.854492188,-1.159667969,-0.549316406,585000000,1
0.024414063,-1.054199219,0.143066406,-0.061035156,-0.061035156,-0.366210938,-0.510742188,0.646484375,0.559570313,-1.220703125,-1.037597656,-0.610351563,585000000,1
0.026367188,-1.053710938,0.146972656,-0.183105469,-0.183105469,-0.366210938,-0.506347656,0.643066406,0.561035156,-1.342773438,-1.647949219,-0.793457031,585000000,1
0.026367188,-1.054199219,0.145507813,-0.244140625,-0.122070313,-0.305175781,-0.500488281,0.647949219,0.564453125,-1.098632813,-2.319335938,-1.159667969,585000000,1
0.022949219,-1.052734375,0.142578125,-0.244140625,0.061035156,-0.244140625,-0.499023438,0.654296875,0.569824219,-1.159667969,-2.746582031,-1.647949219,585000000,1
0.024414063,-1.055175781,0.145507813,-0.305175781,0,-0.305175781,-0.48828125,0.646972656,0.576660156,-1.892089844,-3.845214844,-1.953125,585000000,1
0.025390625,-1.0546875,0.145996094,-0.305175781,0,-0.366210938,-0.475097656,0.643066406,0.567871094,-1.831054688,-4.699707031,-2.9296875,585000000,1
0.024902344,-1.053710938,0.143554688,-0.244140625,0.183105469,-0.366210938,-0.494628906,0.646484375,0.567871094,-1.892089844,-2.746582031,-4.638671875,585000000,1
0.023925781,-1.053710938,0.144042969,-0.244140625,0.061035156,-0.366210938,-0.504882813,0.638183594,0.583984375,-3.295898438,-3.356933594,-6.286621094,585000000,1
0.024414063,-1.052734375,0.14453125,-0.244140625,0.061035156,-0.305175781,-0.475097656,0.631835938,0.605957031,-4.455566406,-7.507324219,-7.507324219,585000000,1
0.024902344,-1.053222656,0.145507813,-0.305175781,-0.061035156,-0.305175781,-0.4375,0.631835938,0.621582031,-5.187988281,-10.98632813,-9.399414063,585000000,1
0.024414063,-1.052734375,0.145507813,-0.366210938,0.061035156,-0.427246094,-0.395019531,0.633300781,0.629882813,-5.676269531,-11.41357422,-13.00048828,585000000,1
0.021972656,-1.05078125,0.147460938,-0.48828125,0.183105469,-0.427246094,-0.379882813,0.626953125,0.637207031,-5.493164063,-1.159667969,-18.5546875,585000000,1
0.027832031,-1.055664063,0.145507813,-0.610351563,-0.183105469,-0.366210938,-0.446289063,0.611328125,0.631835938,-4.272460938,15.19775391,-25.32958984,585000000,1
0.027832031,-1.055664063,0.144042969,-0.549316406,0.122070313,-0.366210938,-0.573242188,0.613769531,0.627929688,-2.9296875,12.26806641,-32.34863281,585000000,1
0.022949219,-1.0546875,0.143066406,-0.549316406,0.366210938,-0.366210938,-0.58984375,0.615234375,0.642089844,-4.821777344,-17.63916016,-36.19384766,585000000,1
0.022460938,-1.052246094,0.143066406,-0.48828125,0,-0.366210938,-0.458496094,0.634765625,0.658691406,-7.080078125,-42.84667969,-36.01074219,585000000,1
0.023925781,-1.056640625,0.143066406,-0.427246094,-0.183105469,-0.427246094,-0.378417969,0.62890625,0.682617188,-11.04736328,-40.71044922,-40.52734375,585000000,1
0.026367188,-1.051757813,0.145996094,-0.366210938,-0.122070313,-0.427246094,-0.393554688,0.595703125,0.704101563,-14.52636719,-18.49365234,-46.20361328,585000000,1
0.024414063,-1.055664063,0.140136719,-0.427246094,0.183105469,-0.366210938,-0.504882813,0.568847656,0.694335938,-13.24462891,2.319335938,-52.24609375,585000000,1
0.026855469,-1.054199219,0.138671875,-0.183105469,0,-0.366210938,-0.555175781,0.564453125,0.706054688,-10.25390625,-0.610351563,-58.89892578,585000000,1
0.026855469,-1.058105469,0.142578125,-0.061035156,-0.122070313,-0.366210938,-0.458984375,0.588378906,0.7734375,-12.08496094,-12.45117188,-58.28857422,585000000,1
0.028320313,-1.052734375,0.145019531,0.061035156,-0.061035156,-0.244140625,-0.40234375,0.55859375,0.842773438,-18.18847656,-19.22607422,-62.80517578,585000000,1
0.025390625,-1.053710938,0.144042969,0,0.183105469,-0.122070313,-0.455078125,0.469238281,0.824707031,-20.87402344,-13.12255859,-76.04980469,585000000,1
0.021972656,-1.051757813,0.144042969,-0.183105469,0,-0.183105469,-0.499023438,0.462402344,0.735839844,-11.77978516,-6.225585938,-86.48681641,585000000,1
0.0234375,-1.052246094,0.145019531,-0.244140625,-0.244140625,-0.244140625,-0.523925781,0.495605469,0.71484375,-5.615234375,-5.920410156,-93.07861328,585000000,1
0.028808594,-1.051757813,0.144042969,-0.183105469,-0.061035156,-0.305175781,-0.557617188,0.491699219,0.754394531,-10.80322266,-10.68115234,-99.06005859,585000000,1
0.024414063,-1.054199219,0.14453125,-0.183105469,0.183105469,-0.305175781,-0.597167969,0.464355469,0.805664063,-17.39501953,-19.16503906,-103.0883789,585000000,1
0.026855469,-1.053222656,0.14453125,-0.244140625,0,-0.244140625,-0.657714844,0.416015625,0.876464844,-21.484375,-28.25927734,-106.0791016,585000000,1
0.025390625,-1.0546875,0.142578125,-0.427246094,-0.183105469,-0.122070313,-0.703125,0.347167969,0.8984375,-24.23095703,-31.25,-112.2436523,585000000,1
0.024902344,-1.053222656,0.14453125,-0.549316406,-0.183105469,-0.122070313,-0.788085938,0.319335938,0.845214844,-20.26367188,-38.02490234,-118.0419922,585000000,1
0.025390625,-1.056640625,0.143554688,-0.671386719,-0.061035156,-0.122070313,-0.923339844,0.349121094,0.679199219,-18.00537109,-67.74902344,-120.4833984,585000000,1
0.024902344,-1.052734375,0.141113281,-0.671386719,-0.122070313,-0.061035156,-0.967773438,0.349609375,0.638183594,-26.61132813,-122.1313477,-120.9106445,585000000,1
0.023925781,-1.056152344,0.141601563,-0.671386719,-0.244140625,0,-0.823730469,0.296386719,0.818847656,-38.33007813,-179.6875,-119.0185547,585000000,1
0.02734375,-1.056640625,0.14453125,-0.427246094,-0.244140625,-0.061035156,-0.642578125,0.231933594,0.916992188,-49.25537109,-211.9140625,-120.4833984,585000000,1
0.025878906,-1.056152344,0.142578125,-0.244140625,0.122070313,-0.183105469,-0.477050781,0.129394531,1.044433594,-57.67822266,-203.4912109,-124.3286133,585000000,1
0.024414063,-1.053222656,0.141601563,-0.122070313,0.549316406,-0.305175781,-0.383300781,0.052734375,1.013183594,-59.14306641,-153.3203125,-118.7744141,585000000,1
0.024902344,-1.055175781,0.142578125,-0.122070313,0.549316406,-0.183105469,-0.456054688,-0.012695313,0.903320313,-58.65478516,-118.8354492,-126.5869141,585000000,1
0.024902344,-1.047851563,0.150390625,-0.366210938,0.427246094,-0.061035156,-0.607421875,-0.117675781,1.002441406,-50.84228516,-124.5117188,-136.2915039,585000000,1
0.024414063,-1.054199219,0.147460938,-0.854492188,0.305175781,0.122070313,-0.656738281,-0.131835938,1.120605469,-36.25488281,-159.9731445,-127.3193359,585000000,1
0.024902344,-1.0546875,0.141601563,-0.9765625,0.305175781,0.061035156,-0.565917969,-0.115722656,1.122558594,-32.04345703,-201.4160156,-129.5776367,585000000,1
0.023925781,-1.057617188,0.142578125,-1.098632813,0.427246094,0.061035156,-0.384277344,-0.112304688,1.082519531,-31.06689453,-229.309082,-137.1459961,585000000,1
0.023925781,-1.054199219,0.147460938,-1.098632813,0.549316406,0,-0.203125,-0.124023438,1.095214844,-31.49414063,-227.9052734,-138.0004883,585000000,1
0.025390625,-1.048828125,0.145996094,-1.342773438,0.549316406,0,-0.036621094,-0.162597656,1.129882813,-32.95898438,-204.1015625,-136.6577148,585000000,1
0.022460938,-1.047363281,0.143554688,-1.770019531,0.549316406,0.061035156,0.0546875,-0.233886719,1.140625,-31.98242188,-167.6025391,-134.5825195,585000000,1
0.0234375,-1.051757813,0.142578125,-2.014160156,0.48828125,0.183105469,0.04296875,-0.317382813,1.150390625,-25.26855469,-133.1176758,-128.9672852,585000000,1
0.029296875,-1.05859375,0.143066406,-2.380371094,0.122070313,0.366210938,-0.001953125,-0.350097656,1.125488281,-6.042480469,-114.2578125,-123.7182617,585000000,1
0.024414063,-1.053710938,0.141113281,-2.563476563,0.061035156,0.48828125,-0.002929688,-0.293945313,1.076171875,19.65332031,-106.3842773,-124.0234375,585000000,1
0.020996094,-1.053222656,0.142089844,-2.9296875,-0.122070313,0.610351563,0.013671875,-0.221679688,1.068359375,33.81347656,-98.38867188,-124.0844727,586000000,1
0.0234375,-1.049804688,0.143554688,-3.295898438,-0.732421875,0.793457031,0.056152344,-0.1796875,1.075195313,32.34863281,-89.29443359,-119.8730469,586000000,1
0.022460938,-1.046386719,0.135742188,-3.967285156,-0.427246094,0.793457031,0.07421875,-0.182617188,1.010253906,30.82275391,-81.84814453,-116.394043,586000000,1
0.031738281,-1.0625,0.142089844,-4.699707031,0.427246094,0.549316406,0.079589844,-0.189453125,1.026855469,39.97802734,-75.1953125,-108.5205078,586000000,1
0.012695313,-1.048339844,0.135742188,-4.333496094,1.586914063,0.671386719,0.129882813,-0.163085938,1.08203125,51.14746094,-68.29833984,-98.87695313,586000000,1
0.014160156,-1.0546875,0.12890625,-4.760742188,0.061035156,0.915527344,0.179199219,-0.12109375,1.081542969,58.83789063,-55.6640625,-91.49169922,586000000,1
0.026367188,-1.057617188,0.131347656,-5.065917969,-0.793457031,0.793457031,0.179199219,-0.056640625,1.004394531,66.46728516,-34.79003906,-83.61816406,586000000,1
0.025878906,-1.053710938,0.127441406,-5.126953125,0.305175781,0.610351563,0.159179688,-0.010253906,0.940429688,69.76318359,-20.08056641,-75.62255859,586000000,1
0.018066406,-1.055664063,0.123046875,-5.126953125,0.854492188,0.732421875,0.157714844,0.010742188,0.940917969,68.90869141,-18.24951172,-69.15283203,586000000,1
0.018554688,-1.055175781,0.124023438,-5.187988281,0.610351563,0.610351563,0.1484375,0.022460938,0.955566406,70.49560547,-24.29199219,-66.89453125,586000000,1
0.020507813,-1.053710938,0.12109375,-5.126953125,0.610351563,0.48828125,0.135742188,0.041992188,0.9453125,76.04980469,-30.70068359,-66.04003906,586000000,1
0.020507813,-1.049804688,0.122070313,-5.432128906,0.48828125,0.610351563,0.143554688,0.0625,0.892578125,79.28466797,-36.98730469,-64.33105469,586000000,1
0.018554688,-1.055175781,0.123046875,-6.164550781,-0.366210938,0.854492188,0.1640625,0.070800781,0.880859375,80.50537109,-47.8515625,-63.59863281,586000000,1
0.020507813,-1.057128906,0.12109375,-6.591796875,-0.915527344,0.9765625,0.177734375,0.059082031,0.840332031,86.9140625,-57.25097656,-65.73486328,586000000,1
0.015136719,-1.049316406,0.116210938,-7.019042969,-0.732421875,0.9765625,0.174316406,0.03515625,0.776855469,98.6328125,-62.62207031,-66.71142578,586000000,1
0.014160156,-1.053710938,0.110351563,-7.507324219,-0.854492188,0.915527344,0.2109375,0.122558594,0.795410156,122.6196289,-68.60351563,-60.97412109,586000000,1
0.018554688,-1.05078125,0.105957031,-8.056640625,-1.403808594,1.037597656,0.187011719,0.248535156,0.741699219,148.2543945,-71.2890625,-58.59375,586000000,1
0.017578125,-1.055664063,0.103515625,-8.605957031,-2.075195313,1.46484375,0.251953125,0.40625,0.63671875,128.90625,-60.79101563,-54.26025391,586000000,1
0.017089844,-1.059082031,0.099121094,-8.972167969,-2.9296875,1.708984375,0.44140625,0.666015625,0.587890625,109.6191406,-43.76220703,-53.16162109,586000000,1
0.017089844,-1.055175781,0.107910156,-9.521484375,-3.295898438,1.770019531,0.544921875,0.9140625,0.621582031,80.44433594,-48.76708984,-60.60791016,586000000,1
0.014160156,-1.056152344,0.100585938,-10.00976563,-2.807617188,1.831054688,0.444824219,0.682617188,0.669433594,34.72900391,-46.26464844,-56.82373047,586000000,1
0.009765625,-1.059082031,0.087890625,-10.31494141,-2.624511719,1.831054688,0.360351563,0.382324219,0.74609375,31.12792969,-30.88378906,-49.62158203,586000000,1
0.016601563,-1.053222656,0.084472656,-10.49804688,-2.624511719,1.831054688,0.314941406,0.297851563,0.66796875,55.78613281,-10.98632813,-55.96923828,586000000,1
0.018066406,-1.056152344,0.083007813,-10.92529297,-1.892089844,2.014160156,0.313964844,0.398925781,0.59765625,72.75390625,8.056640625,-54.50439453,586000000,1
0.014160156,-1.067382813,0.088378906,-11.47460938,-1.953125,2.197265625,0.310058594,0.509765625,0.590332031,75.80566406,17.27294922,-50.17089844,586000000,1
0.010253906,-1.05859375,0.083984375,-11.41357422,-2.44140625,2.136230469,0.292480469,0.560546875,0.583007813,77.02636719,18.31054688,-50.59814453,586000000,1
0.008300781,-1.058105469,0.068359375,-11.23046875,-2.136230469,1.953125,0.279785156,0.602539063,0.557617188,79.95605469,17.578125,-49.98779297,586000000,1
0.008300781,-1.067382813,0.056152344,-10.80322266,-1.403808594,1.647949219,0.248046875,0.628417969,0.504394531,82.70263672,20.56884766,-48.58398438,586000000,1
0.013671875,-1.067382813,0.0546875,-9.887695313,-0.915527344,1.220703125,0.228027344,0.648925781,0.510742188,80.44433594,20.93505859,-45.59326172,586000000,1
0.016113281,-1.064453125,0.054199219,-8.605957031,-0.610351563,0.366210938,0.222167969,0.62109375,0.50390625,78.06396484,15.99121094,-45.47119141,586000000,1
0.00390625,-1.052246094,0.059570313,-8.361816406,0,0.061035156,0.226074219,0.610839844,0.494140625,81.23779297,15.93017578,-46.44775391,586000000,1
0.012695313,-1.058105469,0.064453125,-9.521484375,-0.427246094,0.671386719,0.208007813,0.646972656,0.454589844,87.70751953,21.42333984,-46.38671875,586000000,1
0.021972656,-1.053710938,0.0625,-10.98632813,0.305175781,1.159667969,0.185546875,0.708984375,0.366210938,91.91894531,21.78955078,-44.43359375,586000000,1
0.006835938,-1.051757813,0.053222656,-12.45117188,2.075195313,1.892089844,0.153320313,0.74609375,0.345703125,88.56201172,17.21191406,-45.71533203,586000000,1
0.011230469,-1.052734375,0.056640625,-13.97705078,1.770019531,2.44140625,0.127929688,0.765625,0.352539063,84.10644531,8.911132813,-47.66845703,586000000,1
0.006835938,-1.049316406,0.048339844,-14.95361328,1.403808594,2.746582031,0.125,0.772949219,0.323730469,81.0546875,3.479003906,-47.66845703,586000000,1
-0.003417969,-1.057128906,0.032714844,-15.68603516,0.915527344,3.173828125,0.135253906,0.773925781,0.30078125,78.97949219,4.150390625,-46.56982422,586000000,1
0.003417969,-1.071777344,0.018554688,-15.74707031,-0.427246094,3.234863281,0.127929688,0.766113281,0.273925781,77.69775391,8.911132813,-45.65429688,586000000,1
0.013183594,-1.064941406,0.015625,-15.13671875,0.610351563,2.990722656,0.096191406,0.791015625,0.232910156,80.32226563,10.49804688,-46.50878906,586000000,1
0.008789063,-1.068359375,0.013671875,-14.52636719,2.868652344,2.685546875,0.046875,0.818847656,0.204101563,79.71191406,8.117675781,-48.76708984,586000000,1
0.005371094,-1.061035156,0.012695313,-13.85498047,3.967285156,2.44140625,0.03515625,0.819824219,0.190429688,75.62255859,5.676269531,-50.35400391,586000000,1
0.001953125,-1.053710938,0.013671875,-13.91601563,4.516601563,2.380371094,0.052246094,0.8125,0.166992188,74.76806641,9.826660156,-48.33984375,586000000,1
-0.001953125,-1.057617188,0.001953125,-15.31982422,3.784179688,3.051757813,0.033203125,0.850585938,0.118652344,77.33154297,20.69091797,-45.47119141,586000000,1
-0.000977,-1.052246094,0.002441406,-15.99121094,2.502441406,3.051757813,-0.02734375,0.883300781,0.070800781,77.27050781,26.30615234,-44.31152344,586000000,1
0.001953125,-1.052246094,0.005371094,-17.08984375,2.44140625,3.295898438,-0.083496094,0.916992188,0.038085938,73.79150391,22.15576172,-41.56494141,586000000,1
-0.010253906,-1.060058594,-0.0234375,-17.63916016,3.173828125,3.41796875,-0.114746094,0.900390625,0.048339844,65.30761719,8.605957031,-38.94042969,586000000,1
-0.003417969,-1.060546875,-0.043457031,-17.45605469,2.868652344,3.295898438,-0.088867188,0.890625,0.052246094,62.98828125,-3.234863281,-37.65869141,586000000,1
-0.002441406,-1.053710938,-0.037109375,-17.21191406,2.563476563,3.112792969,-0.041992188,0.893554688,0.032226563,62.13378906,-2.258300781,-36.31591797,586000000,1
-0.01953125,-1.052734375,-0.030761719,-16.90673828,0.915527344,3.112792969,-0.042480469,0.910644531,0.016601563,61.40136719,7.690429688,-36.80419922,586000000,1
-0.006835938,-1.051757813,-0.032714844,-17.45605469,-0.427246094,3.540039063,-0.106445313,0.909179688,-0.012695313,60.91308594,17.15087891,-36.80419922,586000000,1
0.002929688,-1.055175781,-0.041503906,-18.49365234,1.098632813,3.967285156,-0.16015625,0.911621094,-0.012207031,60.18066406,16.11328125,-36.49902344,587000000,1
-0.020019531,-1.050292969,-0.063476563,-19.28710938,3.295898438,4.577636719,-0.166015625,0.928710938,-0.02734375,59.69238281,10.92529297,-33.26416016,587000000,1
-0.032226563,-1.060058594,-0.0703125,-19.53125,2.075195313,4.516601563,-0.155761719,0.920898438,-0.053710938,56.76269531,7.202148438,-31.00585938,587000000,1
-0.014160156,-1.056640625,-0.068847656,-18.79882813,0.610351563,3.723144531,-0.142578125,0.908691406,-0.030761719,53.46679688,4.699707031,-28.25927734,587000000,1
-0.000977,-1.050292969,-0.057128906,-18.37158203,2.136230469,3.112792969,-0.139160156,0.909179688,-0.045898438,54.19921875,2.807617188,-26.06201172,587000000,1
-0.032226563,-1.041992188,-0.090332031,-18.49365234,3.540039063,3.601074219,-0.16796875,0.917480469,-0.072265625,54.99267578,0.427246094,-28.38134766,587000000,1
-0.022460938,-1.054199219,-0.096679688,-19.22607422,0.549316406,4.333496094,-0.184082031,0.905273438,-0.0859375,54.44335938,0.366210938,-30.2734375,587000000,1
-0.017578125,-1.067382813,-0.094726563,-19.10400391,-0.122070313,4.638671875,-0.155761719,0.900390625,-0.092285156,54.62646484,3.356933594,-28.01513672,587000000,1
-0.022949219,-1.053222656,-0.106933594,-18.37158203,1.892089844,4.150390625,-0.157714844,0.902832031,-0.102539063,55.23681641,10.98632813,-27.03857422,587000000,1
-0.018066406,-1.041503906,-0.100097656,-17.82226563,1.892089844,3.723144531,-0.210449219,0.930664063,-0.163085938,58.47167969,16.17431641,-26.79443359,587000000,1
-0.036132813,-1.0390625,-0.120117188,-17.578125,0.366210938,3.90625,-0.265136719,0.936523438,-0.1953125,57.06787109,12.51220703,-25.63476563,587000000,1
-0.037597656,-1.049804688,-0.124023438,-18.49365234,-0.48828125,4.39453125,-0.242675781,0.94140625,-0.201171875,54.07714844,1.647949219,-24.23095703,587000000,1
-0.026367188,-1.048828125,-0.122070313,-18.73779297,-0.671386719,4.455566406,-0.188964844,0.909667969,-0.191894531,51.02539063,-3.540039063,-23.25439453,587000000,1
-0.032714844,-1.045410156,-0.134765625,-18.24951172,-0.793457031,4.577636719,-0.205566406,0.873046875,-0.199707031,51.45263672,3.112792969,-22.88818359,587000000,1
-0.025878906,-1.055664063,-0.143554688,-17.51708984,-2.9296875,4.638671875,-0.245117188,0.877929688,-0.239746094,54.56542969,8.850097656,-22.70507813,587000000,1
-0.026855469,-1.038574219,-0.150878906,-15.99121094,-5.37109375,4.211425781,-0.24609375,0.891601563,-0.285644531,56.21337891,9.521484375,-22.15576172,587000000,1
-0.029785156,-1.046386719,-0.153320313,-16.29638672,-3.662109375,4.821777344,-0.245117188,0.891601563,-0.316894531,55.05371094,10.19287109,-20.99609375,587000000,1
-0.039550781,-1.055175781,-0.167480469,-15.86914063,-1.098632813,4.699707031,-0.256347656,0.877441406,-0.338378906,52.36816406,10.92529297,-20.56884766,587000000,1
-0.049316406,-1.038574219,-0.173339844,-14.83154297,-0.671386719,4.516601563,-0.289550781,0.875488281,-0.364257813,51.81884766,12.32910156,-21.11816406,587000000,1
-0.049804688,-1.041992188,-0.173828125,-14.28222656,-1.525878906,4.39453125,-0.309082031,0.880859375,-0.379882813,49.86572266,11.71875,-19.10400391,587000000,1
-0.054199219,-1.036132813,-0.161621094,-12.39013672,-8.056640625,3.112792969,-0.275878906,0.872558594,-0.3828125,46.99707031,7.568359375,-15.38085938,587000000,1
-0.056152344,-1.023925781,-0.179199219,-10.55908203,-15.44189453,2.197265625,-0.26953125,0.874023438,-0.432128906,46.44775391,6.164550781,-15.74707031,587000000,1
-0.032714844,-1.048339844,-0.177734375,-12.02392578,-14.03808594,3.601074219,-0.307128906,0.891601563,-0.463867188,45.41015625,7.507324219,-16.96777344,587000000,1
-0.033691406,-1.043945313,-0.189941406,-12.39013672,-11.16943359,4.638671875,-0.301269531,0.884765625,-0.455566406,41.93115234,5.554199219,-15.01464844,587000000,1
-0.051757813,-1.032226563,-0.204589844,-12.02392578,-9.27734375,4.577636719,-0.283691406,0.863769531,-0.438964844,40.28320313,3.845214844,-14.16015625,587000000,1
-0.042480469,-1.049804688,-0.199707031,-11.35253906,-5.432128906,4.39453125,-0.29296875,0.869140625,-0.458496094,41.74804688,4.333496094,-16.17431641,587000000,1
-0.040527344,-1.052734375,-0.196777344,-10.31494141,-0.854492188,4.089355469,-0.286132813,0.865234375,-0.479980469,41.50390625,6.713867188,-15.44189453,587000000,1
-0.05859375,-1.031738281,-0.192871094,-9.765625,0.854492188,4.150390625,-0.282714844,0.843261719,-0.498535156,40.0390625,11.53564453,-13.73291016,587000000,1
-0.075683594,-1.022949219,-0.196289063,-10.13183594,0.671386719,4.699707031,-0.322753906,0.825195313,-0.51953125,39.48974609,15.07568359,-12.87841797,587000000,1
-0.075683594,-1.016601563,-0.196289063,-10.62011719,-1.098632813,5.004882813,-0.334960938,0.809082031,-0.527832031,38.51318359,10.43701172,-12.45117188,587000000,1
-0.064453125,-1.034179688,-0.192382813,-10.98632813,-2.319335938,5.310058594,-0.296875,0.811523438,-0.53515625,37.04833984,5.493164063,-11.23046875,587000000,1
-0.072753906,-1.037597656,-0.214355469,-10.68115234,-2.990722656,5.432128906,-0.267578125,0.822753906,-0.550292969,35.40039063,7.629394531,-10.07080078,587000000,1
-0.063964844,-1.029296875,-0.221679688,-10.37597656,-3.173828125,5.37109375,-0.297363281,0.818359375,-0.550292969,32.71484375,10.7421875,-10.37597656,587000000,2
-0.072753906,-1.022460938,-0.2265625,-9.521484375,-3.173828125,4.699707031,-0.325683594,0.811035156,-0.560546875,30.45654297,6.652832031,-11.35253906,587000000,2
-0.079589844,-1.020507813,-0.221679688,-9.338378906,-3.479003906,4.455566406,-0.295410156,0.794921875,-0.561035156,29.17480469,1.342773438,-11.29150391,587000000,2
-0.059570313,-1.028808594,-0.20703125,-9.643554688,-3.784179688,5.310058594,-0.290039063,0.783203125,-0.54296875,28.62548828,4.943847656,-10.98632813,587000000,2
-0.076171875,-1.030273438,-0.227050781,-9.765625,-2.258300781,5.981445313,-0.317871094,0.796386719,-0.530761719,28.68652344,8.850097656,-11.59667969,587000000,2
-0.076660156,-1.017578125,-0.229003906,-9.399414063,-0.793457031,5.798339844,-0.348632813,0.778808594,-0.568847656,28.62548828,8.483886719,-11.23046875,587000000,2
-0.089355469,-1.020019531,-0.230957031,-9.216308594,0.549316406,5.432128906,-0.340332031,0.756835938,-0.611328125,28.68652344,6.408691406,-9.887695313,587000000,2
-0.088867188,-1.027832031,-0.237304688,-8.972167969,0,5.615234375,-0.327148438,0.759765625,-0.607421875,28.74755859,5.37109375,-9.033203125,587000000,2
-0.077636719,-1.024414063,-0.241699219,-8.239746094,-1.46484375,5.676269531,-0.314453125,0.775390625,-0.596679688,28.80859375,4.8828125,-8.544921875,587000000,2
-0.072753906,-1.030273438,-0.25390625,-7.446289063,-0.122070313,5.493164063,-0.319824219,0.760742188,-0.594238281,27.34375,5.615234375,-9.155273438,587000000,2
-0.103027344,-1.021972656,-0.242675781,-6.774902344,1.953125,4.516601563,-0.303222656,0.753417969,-0.629394531,27.46582031,7.32421875,-9.643554688,587000000,2
-0.120117188,-1.0078125,-0.233886719,-6.591796875,0.244140625,3.723144531,-0.321777344,0.737792969,-0.671386719,27.22167969,10.62011719,-10.19287109,587000000,2
-0.101074219,-1.012695313,-0.235351563,-7.32421875,-2.075195313,4.089355469,-0.350585938,0.739257813,-0.684570313,26.91650391,12.08496094,-11.29150391,587000000,2
-0.098144531,-1.020019531,-0.242675781,-8.30078125,-2.258300781,4.577636719,-0.360351563,0.743164063,-0.685546875,25.87890625,12.81738281,-10.62011719,587000000,2
-0.09765625,-1.029785156,-0.258300781,-7.8125,-1.46484375,4.577636719,-0.348632813,0.731933594,-0.678710938,23.31542969,11.96289063,-8.544921875,587000000,2
-0.101074219,-1.0234375,-0.263671875,-6.774902344,-0.244140625,4.028320313,-0.33984375,0.7265625,-0.682128906,21.36230469,8.605957031,-7.934570313,587000000,2
-0.109863281,-1.028320313,-0.260742188,-5.249023438,-0.061035156,3.112792969,-0.346679688,0.729980469,-0.706542969,20.87402344,4.821777344,-8.972167969,587000000,2
-0.086425781,-1.015136719,-0.257324219,-3.723144531,-0.915527344,2.136230469,-0.337890625,0.712890625,-0.718261719,20.01953125,2.197265625,-8.30078125,587000000,2
-0.094238281,-0.994140625,-0.267578125,-3.479003906,0.183105469,1.892089844,-0.313964844,0.707519531,-0.713867188,19.77539063,1.586914063,-7.385253906,587000000,2
-0.100097656,-1.012207031,-0.250976563,-3.967285156,1.403808594,2.44140625,-0.316894531,0.711425781,-0.703125,18.79882813,3.90625,-8.605957031,588000000,2
-0.121582031,-1.031738281,-0.245117188,-4.089355469,1.342773438,2.563476563,-0.339355469,0.701171875,-0.693847656,16.29638672,7.019042969,-9.704589844,588000000,2
-0.118652344,-1.017089844,-0.266601563,-3.173828125,-0.305175781,1.831054688,-0.362792969,0.702636719,-0.734375,15.50292969,5.981445313,-9.27734375,588000000,2
-0.0859375,-1.000488281,-0.256835938,-3.173828125,-0.061035156,1.281738281,-0.395996094,0.698730469,-0.771484375,14.6484375,1.46484375,-8.361816406,588000000,2
-0.11328125,-1.004394531,-0.252929688,-4.150390625,1.831054688,1.708984375,-0.391113281,0.689453125,-0.758300781,12.75634766,-2.014160156,-6.896972656,588000000,2
-0.109375,-0.999511719,-0.26171875,-4.8828125,0.671386719,2.502441406,-0.348632813,0.678222656,-0.732421875,10.86425781,-0.793457031,-5.37109375,588000000,2
-0.092773438,-1.020996094,-0.249023438,-5.737304688,2.807617188,3.234863281,-0.342285156,0.6796875,-0.717773438,9.765625,5.554199219,-4.455566406,588000000,2
-0.130859375,-1.023925781,-0.267089844,-5.859375,6.652832031,2.990722656,-0.373535156,0.6796875,-0.723144531,8.483886719,7.690429688,-4.028320313,588000000,2
-0.11328125,-1.009277344,-0.277832031,-3.967285156,2.807617188,1.281738281,-0.368652344,0.6796875,-0.733398438,8.056640625,0.549316406,-3.723144531,588000000,2
-0.110351563,-1.007324219,-0.263183594,-3.540039063,1.770019531,0.610351563,-0.333984375,0.681640625,-0.708007813,7.385253906,-4.8828125,-3.662109375,588000000,2
-0.106933594,-1.012207031,-0.267578125,-3.845214844,2.075195313,0.9765625,-0.306640625,0.682617188,-0.67578125,7.141113281,-3.295898438,-4.577636719,588000000,2
-0.078125,-1.006347656,-0.266601563,-4.39453125,6.34765625,1.46484375,-0.321289063,0.680664063,-0.679199219,8.056640625,2.136230469,-5.187988281,588000000,2
-0.109375,-1.004394531,-0.2421875,-7.751464844,19.34814453,2.868652344,-0.342773438,0.684570313,-0.69921875,9.399414063,5.004882813,-5.676269531,588000000,2
-0.175292969,-1.020996094,-0.274414063,-8.361816406,19.65332031,2.807617188,-0.368164063,0.669921875,-0.7109375,9.27734375,8.361816406,-5.798339844,588000000,2
-0.092773438,-0.993164063,-0.328125,-3.356933594,0.671386719,0.183105469,-0.381347656,0.668457031,-0.682617188,8.117675781,9.643554688,-5.187988281,588000000,2
-0.051269531,-1.009765625,-0.288085938,-3.051757813,0.366210938,0.122070313,-0.384277344,0.688476563,-0.671386719,8.30078125,5.310058594,-3.784179688,588000000,2
-0.134277344,-1.009277344,-0.271484375,-3.967285156,6.103515625,1.098632813,-0.380371094,0.684570313,-0.683105469,8.544921875,-2.502441406,-2.075195313,588000000,2
-0.12890625,-1,-0.264160156,-4.333496094,6.713867188,1.037597656,-0.341308594,0.688476563,-0.700683594,9.521484375,-4.516601563,-1.647949219,588000000,2
-0.0859375,-1.002929688,-0.266113281,-5.37109375,9.582519531,0.854492188,-0.336914063,0.666992188,-0.693847656,8.850097656,3.41796875,-1.403808594,588000000,2
-0.104980469,-1.013183594,-0.313476563,-5.187988281,10.07080078,0.854492188,-0.362304688,0.670410156,-0.694335938,9.521484375,10.07080078,-1.098632813,588000000,2
-0.110839844,-1.006347656,-0.30859375,-3.90625,5.37109375,0.610351563,-0.377929688,0.67578125,-0.688476563,9.338378906,7.751464844,0.061035156,588000000,2
-0.104980469,-1.002441406,-0.284667969,-2.563476563,0.366210938,0.122070313,-0.363769531,0.657226563,-0.674804688,8.361816406,0.793457031,0.854492188,588000000,2
-0.110839844,-0.991210938,-0.293457031,-1.892089844,-1.525878906,-0.610351563,-0.3359375,0.649414063,-0.697265625,10.00976563,-0.854492188,1.220703125,588000000,2
-0.090332031,-1.000976563,-0.276855469,-2.258300781,-0.732421875,-0.610351563,-0.326171875,0.654296875,-0.700195313,11.16943359,3.173828125,2.44140625,588000000,2
-0.109375,-1,-0.298828125,-2.44140625,-0.48828125,-0.183105469,-0.333496094,0.657226563,-0.704589844,10.92529297,5.676269531,2.624511719,588000000,2
-0.11328125,-1.010742188,-0.324707031,-1.708984375,-2.380371094,-0.244140625,-0.340332031,0.635253906,-0.684570313,9.338378906,3.662109375,1.708984375,588000000,2
-0.081054688,-1.014648438,-0.285644531,-0.366210938,-1.220703125,-0.48828125,-0.299316406,0.645507813,-0.697265625,10.86425781,0,1.770019531,588000000,2
-0.104980469,-0.998046875,-0.271484375,-0.732421875,3.479003906,-0.122070313,-0.288574219,0.645996094,-0.726074219,12.51220703,1.098632813,2.44140625,588000000,2
-0.123046875,-0.995117188,-0.296875,-0.915527344,1.342773438,0.061035156,-0.286621094,0.620117188,-0.731445313,12.87841797,5.004882813,1.831054688,588000000,2
-0.105957031,-0.997558594,-0.300292969,-0.366210938,-3.540039063,-0.305175781,-0.282714844,0.650878906,-0.752441406,14.6484375,11.35253906,-0.427246094,588000000,2
-0.0859375,-1.006347656,-0.285644531,-0.610351563,-3.234863281,0.183105469,-0.310546875,0.654785156,-0.788574219,14.16015625,18.31054688,-1.220703125,588000000,2
-0.105957031,-1.002441406,-0.301269531,-0.244140625,-2.868652344,0.549316406,-0.333496094,0.633300781,-0.808105469,11.84082031,18.73779297,0.061035156,588000000,2
-0.115234375,-1.004882813,-0.316894531,1.525878906,-6.34765625,-0.183105469,-0.338378906,0.651367188,-0.804199219,9.582519531,10.92529297,0.305175781,588000000,2
-0.099609375,-1.008300781,-0.279296875,2.197265625,-5.432128906,-0.793457031,-0.319335938,0.645507813,-0.803710938,6.164550781,2.014160156,-0.549316406,588000000,2
-0.123046875,-0.996582031,-0.276855469,1.892089844,-3.112792969,-0.915527344,-0.2890625,0.647949219,-0.808105469,5.126953125,1.281738281,-0.671386719,588000000,2
-0.1015625,-1.000976563,-0.284667969,0.9765625,-4.089355469,-0.427246094,-0.317382813,0.629882813,-0.798828125,3.479003906,5.432128906,-0.549316406,588000000,2
-0.109375,-1.002929688,-0.299804688,0.427246094,-4.028320313,-0.183105469,-0.340820313,0.625,-0.788574219,1.403808594,4.028320313,-0.732421875,588000000,2
-0.120117188,-1.009277344,-0.318847656,1.708984375,-5.615234375,-0.732421875,-0.335449219,0.623046875,-0.777832031,-0.732421875,-1.525878906,0.122070313,588000000,2
-0.105957031,-0.99609375,-0.285644531,3.234863281,-6.774902344,-1.708984375,-0.297363281,0.641113281,-0.798828125,0,-5.432128906,1.098632813,588000000,2
-0.093261719,-1.006835938,-0.2578125,2.258300781,-4.455566406,-1.220703125,-0.309082031,0.641601563,-0.795410156,0.122070313,-2.868652344,1.403808594,588000000,2
-0.114257813,-1.006835938,-0.285644531,1.098632813,-2.319335938,-0.305175781,-0.309082031,0.61328125,-0.753417969,-1.46484375,-0.915527344,-0.061035156,588000000,2
-0.123535156,-0.996582031,-0.294433594,1.098632813,-3.41796875,-0.549316406,-0.312011719,0.606445313,-0.757324219,-1.220703125,2.258300781,-0.9765625,588000000,2
-0.1171875,-1.000976563,-0.286132813,1.708984375,-4.8828125,-1.159667969,-0.3359375,0.624023438,-0.798828125,-0.915527344,4.333496094,0.183105469,588000000,2
-0.100097656,-1.009277344,-0.282226563,2.197265625,-5.432128906,-1.342773438,-0.351074219,0.639160156,-0.805175781,-2.502441406,1.220703125,1.892089844,588000000,2
-0.108398438,-1.006347656,-0.283691406,2.258300781,-5.920410156,-1.281738281,-0.336425781,0.617675781,-0.766113281,-4.821777344,-5.004882813,2.624511719,588000000,2
-0.113769531,-1.006835938,-0.280761719,1.892089844,-5.187988281,-1.037597656,-0.26953125,0.603515625,-0.72265625,-4.943847656,-6.774902344,2.807617188,588000000,2
-0.103027344,-1.010742188,-0.275878906,1.770019531,-2.502441406,-1.159667969,-0.274414063,0.619628906,-0.714355469,-3.41796875,-1.098632813,2.014160156,588000000,2
-0.110351563,-1.0078125,-0.28125,1.770019531,0.854492188,-1.525878906,-0.316894531,0.61328125,-0.708984375,-3.356933594,0.244140625,0.610351563,588000000,2
-0.132324219,-1.0078125,-0.276367188,2.075195313,0.48828125,-2.014160156,-0.296386719,0.592285156,-0.71484375,-2.258300781,-2.990722656,0.366210938,588000000,2
-0.108398438,-0.991699219,-0.263671875,2.075195313,-2.502441406,-2.197265625,-0.278808594,0.6015625,-0.740722656,0.854492188,-0.793457031,1.342773438,588000000,2
-0.097167969,-1.001953125,-0.270019531,0.9765625,-3.173828125,-1.525878906,-0.287109375,0.622558594,-0.74609375,1.831054688,2.014160156,1.586914063,589000000,2
-0.114746094,-1.005371094,-0.277832031,0.061035156,-2.9296875,-0.793457031,-0.288085938,0.631835938,-0.733398438,0.915527344,-0.305175781,-0.244140625,589000000,2
-0.115722656,-1.008789063,-0.283203125,0.061035156,-3.540039063,-0.793457031,-0.282226563,0.598144531,-0.741210938,-0.183105469,-0.854492188,-1.403808594,589000000,2
-0.096191406,-1.012207031,-0.270019531,0.732421875,-2.9296875,-1.281738281,-0.282226563,0.601074219,-0.759765625,0.671386719,3.845214844,-0.549316406,589000000,2
-0.116210938,-1.013671875,-0.2578125,0.305175781,-0.610351563,-1.159667969,-0.3203125,0.615722656,-0.759277344,0.732421875,6.042480469,-0.549316406,589000000,2
-0.119628906,-1.004394531,-0.273925781,-0.183105469,-0.366210938,-1.220703125,-0.321777344,0.622558594,-0.745605469,-0.122070313,-0.244140625,-1.831054688,589000000,2
-0.107910156,-0.997558594,-0.284667969,-0.48828125,-0.305175781,-1.46484375,-0.293945313,0.604980469,-0.727050781,-0.427246094,-3.723144531,-1.770019531,589000000,2
-0.090820313,-1.016601563,-0.272460938,-0.610351563,0.48828125,-1.220703125,-0.288574219,0.601074219,-0.720703125,0.48828125,-2.807617188,-1.525878906,589000000,2
-0.122558594,-1.016601563,-0.274902344,-0.183105469,1.647949219,-1.098632813,-0.310058594,0.626464844,-0.751464844,1.770019531,-1.525878906,-1.281738281,589000000,2
-0.119628906,-0.988769531,-0.270507813,0.122070313,0.366210938,-1.647949219,-0.316894531,0.620117188,-0.749023438,0.915527344,-3.784179688,-1.403808594,589000000,2
-0.099121094,-0.99609375,-0.264160156,-0.610351563,-0.305175781,-1.770019531,-0.287597656,0.607910156,-0.723632813,0.915527344,-4.699707031,-2.319335938,589000000,2
-0.100097656,-1.013183594,-0.283691406,-1.525878906,-0.610351563,-0.915527344,-0.287109375,0.59375,-0.70703125,2.014160156,0.671386719,-2.685546875,589000000,2
-0.107910156,-1.025390625,-0.290039063,-0.671386719,-1.525878906,-0.793457031,-0.323242188,0.610351563,-0.75390625,5.126953125,4.333496094,-3.051757813,589000000,2
-0.1015625,-0.996582031,-0.270019531,0.366210938,-0.732421875,-1.342773438,-0.338378906,0.630371094,-0.809082031,7.385253906,3.845214844,-2.502441406,589000000,2
-0.092285156,-0.998535156,-0.256835938,-0.732421875,1.098632813,-0.854492188,-0.3203125,0.616210938,-0.799316406,5.798339844,4.455566406,-1.525878906,589000000,2
-0.110351563,-1.008789063,-0.280273438,-1.586914063,1.037597656,-0.061035156,-0.326660156,0.619628906,-0.7890625,2.990722656,7.019042969,-1.770019531,589000000,2
-0.112304688,-1.012207031,-0.276855469,-1.586914063,-0.366210938,0.061035156,-0.36328125,0.614257813,-0.803710938,0.48828125,5.126953125,-1.159667969,589000000,2
-0.111328125,-1.007324219,-0.283691406,-0.9765625,-0.549316406,-0.427246094,-0.354980469,0.608398438,-0.80859375,-1.159667969,-2.868652344,1.220703125,589000000,2
-0.095214844,-1.001953125,-0.276367188,-0.549316406,0.305175781,-0.732421875,-0.297851563,0.606445313,-0.78515625,-1.770019531,-8.056640625,2.197265625,589000000,2
-0.107910156,-1.002441406,-0.273925781,-0.915527344,0.732421875,-0.305175781,-0.271972656,0.608398438,-0.753417969,-1.770019531,-4.577636719,1.037597656,589000000,2
-0.107421875,-1.010253906,-0.276855469,-1.403808594,-0.244140625,0.183105469,-0.297363281,0.619628906,-0.765625,-0.854492188,1.220703125,-0.610351563,589000000,2
-0.091796875,-1.008789063,-0.274414063,-1.46484375,0.48828125,0.305175781,-0.307617188,0.614746094,-0.779785156,-0.610351563,3.356933594,-0.366210938,589000000,2
-0.109863281,-1.005859375,-0.276855469,-1.525878906,2.014160156,0.366210938,-0.315429688,0.607910156,-0.786132813,-0.9765625,3.479003906,0.122070313,589000000,2
-0.118652344,-1.009765625,-0.28125,-1.281738281,0.610351563,0.183105469,-0.337402344,0.620117188,-0.768554688,-1.708984375,0.732421875,-0.793457031,589000000,2
-0.102050781,-1.004394531,-0.290039063,-0.732421875,-0.671386719,-0.244140625,-0.297363281,0.606445313,-0.740234375,-2.319335938,-2.44140625,-0.610351563,589000000,2
-0.099121094,-1.012207031,-0.276367188,-0.549316406,0.244140625,-0.305175781,-0.283691406,0.607910156,-0.744628906,-0.854492188,1.953125,0.305175781,589000000,2
-0.094726563,-1.017089844,-0.270996094,-0.122070313,1.46484375,0,-0.336425781,0.616210938,-0.754394531,-0.244140625,5.065917969,0,589000000,2
-0.109375,-1.00390625,-0.27734375,-0.366210938,3.90625,0.061035156,-0.338378906,0.611328125,-0.754394531,-0.793457031,-1.037597656,-0.671386719,589000000,2
-0.116699219,-1.000488281,-0.275878906,-0.305175781,3.967285156,-0.244140625,-0.285644531,0.604003906,-0.754882813,-0.671386719,-4.272460938,0.122070313,589000000,2
-0.103027344,-0.995117188,-0.272949219,-0.671386719,1.892089844,-0.244140625,-0.29296875,0.610839844,-0.742675781,-0.305175781,-0.366210938,0.610351563,589000000,2
-0.104492188,-1.005371094,-0.280273438,-1.46484375,1.098632813,0.366210938,-0.3125,0.616210938,-0.732910156,-0.915527344,0.244140625,0.366210938,589000000,2
-0.096191406,-1.008300781,-0.279785156,-1.708984375,0.854492188,0.610351563,-0.296875,0.604003906,-0.73828125,-1.342773438,-1.892089844,-0.305175781,589000000,2
-0.108886719,-1.009277344,-0.278320313,-1.647949219,1.647949219,0.427246094,-0.303710938,0.600097656,-0.747070313,0.061035156,0.183105469,-0.427246094,589000000,2
-0.108886719,-1.005859375,-0.277832031,-1.403808594,1.403808594,0.244140625,-0.310058594,0.614746094,-0.75,2.136230469,2.44140625,0.061035156,589000000,2
-0.097167969,-1.002929688,-0.276367188,-1.647949219,1.892089844,0.305175781,-0.303222656,0.622558594,-0.751953125,2.075195313,1.831054688,0.610351563,589000000,2
-0.116210938,-1.000976563,-0.282714844,-2.258300781,2.380371094,0.366210938,-0.306152344,0.604492188,-0.748535156,0.427246094,-0.610351563,0.48828125,589000000,2
-0.109863281,-1.007324219,-0.282714844,-2.197265625,0.427246094,0.305175781,-0.288574219,0.6015625,-0.770507813,0,-2.685546875,-0.061035156,589000000,2
-0.099121094,-0.99609375,-0.284179688,-1.770019531,-0.427246094,0.244140625,-0.290039063,0.608398438,-0.795898438,0.793457031,-0.549316406,0.122070313,589000000,2
-0.101074219,-1.006835938,-0.2734375,-2.258300781,0.061035156,0.610351563,-0.302734375,0.633789063,-0.790527344,0.854492188,1.281738281,-0.305175781,589000000,2
-0.111328125,-1.007324219,-0.288085938,-2.563476563,0.244140625,0.915527344,-0.311035156,0.623046875,-0.759765625,-1.586914063,0,-0.854492188,589000000,2
-0.099609375,-1.006835938,-0.296386719,-2.136230469,0.305175781,0.793457031,-0.302734375,0.603515625,-0.754882813,-2.807617188,-2.746582031,-0.854492188,589000000,2
-0.104492188,-1.005371094,-0.282714844,-1.770019531,1.953125,0.427246094,-0.288085938,0.615722656,-0.767578125,-1.831054688,-2.868652344,-0.549316406,589000000,2
-0.109863281,-1.000488281,-0.288085938,-1.708984375,2.685546875,0.48828125,-0.30859375,0.619628906,-0.756835938,-1.403808594,-0.48828125,-1.098632813,589000000,2
-0.109375,-1.003417969,-0.289550781,-1.831054688,1.586914063,0.671386719,-0.296875,0.604492188,-0.741210938,-1.098632813,0,-2.075195313,589000000,2
-0.116210938,-1.004882813,-0.29296875,-1.46484375,-0.854492188,0.366210938,-0.298339844,0.614746094,-0.757324219,0.610351563,2.685546875,-2.075195313,589000000,2
-0.099609375,-1.002441406,-0.286132813,-1.098632813,-1.586914063,0.122070313,-0.332519531,0.62890625,-0.779785156,1.281738281,3.90625,-1.342773438,589000000,2
-0.092285156,-0.998046875,-0.279785156,-1.647949219,0.549316406,0.48828125,-0.319824219,0.621582031,-0.778808594,-0.671386719,1.342773438,-1.037597656,589000000,2
-0.118652344,-1.002441406,-0.287109375,-2.502441406,2.014160156,1.098632813,-0.308105469,0.609863281,-0.749511719,-3.41796875,0.9765625,-1.403808594,589000000,2
-0.110351563,-1.012695313,-0.297363281,-2.197265625,1.586914063,0.793457031,-0.335449219,0.607910156,-0.750976563,-3.234863281,-0.061035156,-1.403808594,589000000,2
-0.108886719,-1.003417969,-0.292480469,-1.098632813,1.831054688,-0.183105469,-0.315429688,0.618652344,-0.769042969,-0.793457031,-4.089355469,-0.183105469,589000000,2
-0.108886719,-0.998535156,-0.279785156,-0.854492188,1.586914063,-0.366210938,-0.278808594,0.628417969,-0.762695313,0.244140625,-1.647949219,0.183105469,590000000,2
-0.105957031,-0.994140625,-0.293945313,-1.525878906,1.46484375,0.061035156,-0.309082031,0.614257813,-0.74609375,-1.220703125,4.760742188,-1.159667969,590000000,2
-0.108398438,-1,-0.301757813,-1.892089844,1.403808594,0.244140625,-0.337890625,0.613769531,-0.756835938,-2.44140625,5.004882813,-1.403808594,590000000,2
-0.102050781,-1.013671875,-0.287597656,-1.46484375,1.342773438,0.061035156,-0.337402344,0.624023438,-0.787597656,-2.380371094,-0.915527344,-0.427246094,590000000,2
-0.115722656,-1.001953125,-0.295410156,-1.037597656,0.9765625,-0.122070313,-0.313476563,0.614746094,-0.773925781,-2.563476563,-5.676269531,0.671386719,590000000,2
-0.110839844,-0.9921875,-0.29296875,-1.098632813,-0.061035156,-0.305175781,-0.275390625,0.613769531,-0.744140625,-2.502441406,-2.563476563,0.183105469,590000000,2
-0.113769531,-0.999511719,-0.290039063,-1.281738281,-0.854492188,-0.366210938,-0.307128906,0.623046875,-0.74609375,-2.624511719,5.37109375,-0.244140625,590000000,2
-0.102050781,-1.002929688,-0.298828125,-1.281738281,-1.281738281,-0.183105469,-0.344238281,0.6328125,-0.772949219,-3.112792969,2.990722656,-0.305175781,590000000,2
-0.095703125,-0.996582031,-0.298339844,-1.342773438,-0.183105469,0,-0.320800781,0.625488281,-0.764648438,-4.39453125,-3.41796875,-0.061035156,590000000,2
-0.111328125,-1.006835938,-0.290039063,-1.342773438,1.098632813,0.122070313,-0.296875,0.592285156,-0.726074219,-4.760742188,-1.770019531,0.183105469,590000000,2
-0.118164063,-1.010742188,-0.291015625,-0.9765625,0.671386719,-0.122070313,-0.306640625,0.623046875,-0.747070313,-1.708984375,2.136230469,0.122070313,590000000,2
-0.1015625,-0.993164063,-0.296875,-0.427246094,0,-0.427246094,-0.333007813,0.6484375,-0.782226563,-0.48828125,2.380371094,0,590000000,2
-0.100097656,-0.990722656,-0.296875,-0.793457031,0.061035156,-0.244140625,-0.327636719,0.64453125,-0.793457031,-1.647949219,1.159667969,0.061035156,590000000,2
-0.123046875,-0.999023438,-0.302246094,-1.159667969,-0.610351563,0,-0.341308594,0.6328125,-0.783203125,-4.028320313,2.258300781,0.183105469,590000000,2
-0.112304688,-1.009765625,-0.299316406,-0.366210938,-2.136230469,-0.427246094,-0.360839844,0.635742188,-0.795898438,-5.187988281,0.183105469,0.9765625,590000000,2
-0.101074219,-1.006347656,-0.293945313,0.48828125,-1.586914063,-1.098632813,-0.352539063,0.635742188,-0.794921875,-6.164550781,-4.211425781,2.258300781,590000000,2
-0.111328125,-1.000488281,-0.294433594,0.48828125,-0.732421875,-1.159667969,-0.319335938,0.623535156,-0.772460938,-7.080078125,-4.8828125,2.990722656,590000000,2
-0.115234375,-1.001953125,-0.307128906,0.610351563,-1.281738281,-1.098632813,-0.312988281,0.624511719,-0.783691406,-6.225585938,-0.610351563,2.990722656,590000000,2
-0.090820313,-1.006835938,-0.30078125,1.403808594,-0.671386719,-1.281738281,-0.337890625,0.655273438,-0.805175781,-5.187988281,2.319335938,3.173828125,590000000,2
-0.102050781,-1.00390625,-0.294921875,2.014160156,1.220703125,-1.403808594,-0.331054688,0.669433594,-0.800292969,-7.019042969,-0.732421875,3.234863281,590000000,2
-0.120605469,-1.006835938,-0.304199219,2.868652344,0.427246094,-1.525878906,-0.313476563,0.637695313,-0.777832031,-10.31494141,-3.173828125,2.624511719,590000000,2
-0.111816406,-1.004394531,-0.293457031,3.662109375,-1.342773438,-2.258300781,-0.311523438,0.619628906,-0.77734375,-10.00976563,-1.159667969,2.746582031,590000000,2
-0.108886719,-1.011230469,-0.284667969,4.211425781,-1.037597656,-2.746582031,-0.322753906,0.645996094,-0.800292969,-7.8125,2.380371094,3.723144531,590000000,2
-0.100585938,-1.004882813,-0.291992188,4.577636719,-0.9765625,-2.746582031,-0.33203125,0.672363281,-0.806640625,-8.483886719,1.708984375,3.234863281,590000000,2
-0.099609375,-0.99609375,-0.295410156,4.943847656,-1.525878906,-2.746582031,-0.323730469,0.658203125,-0.78125,-12.08496094,-1.281738281,2.258300781,590000000,2
-0.115234375,-1.0078125,-0.295410156,5.126953125,-2.502441406,-2.990722656,-0.321777344,0.62890625,-0.767578125,-13.97705078,-1.220703125,3.112792969,590000000,2
-0.103515625,-1.016113281,-0.286621094,6.225585938,-3.601074219,-3.479003906,-0.326660156,0.660644531,-0.789550781,-12.45117188,-1.098632813,4.211425781,590000000,2
-0.092285156,-1.012695313,-0.279296875,7.263183594,-2.075195313,-4.211425781,-0.328125,0.667480469,-0.773925781,-12.93945313,-2.563476563,4.272460938,590000000,2
-0.105957031,-1.011230469,-0.281738281,7.751464844,-0.610351563,-4.760742188,-0.302246094,0.643066406,-0.726074219,-15.13671875,-2.9296875,3.479003906,590000000,2
-0.113769531,-1.018554688,-0.283203125,8.911132813,-2.014160156,-5.249023438,-0.319335938,0.652832031,-0.744140625,-13.671875,-0.9765625,3.234863281,590000000,2
-0.091796875,-1.000488281,-0.272949219,9.765625,-3.051757813,-5.920410156,-0.350097656,0.672851563,-0.790039063,-12.14599609,-1.098632813,4.699707031,590000000,2
-0.080566406,-1.006835938,-0.260253906,9.338378906,-2.136230469,-5.737304688,-0.305175781,0.672363281,-0.765625,-14.09912109,-3.662109375,5.615234375,590000000,2
-0.105957031,-1.025878906,-0.270019531,9.521484375,-1.159667969,-5.554199219,-0.299316406,0.654785156,-0.735351563,-15.86914063,-1.037597656,4.8828125,590000000,2
-0.109375,-1.018066406,-0.270019531,10.80322266,-2.44140625,-6.34765625,-0.332519531,0.661132813,-0.755371094,-14.95361328,1.220703125,4.577636719,590000000,2
-0.080078125,-1.021484375,-0.254394531,12.02392578,-2.624511719,-7.263183594,-0.325683594,0.69140625,-0.798828125,-13.91601563,-0.48828125,5.798339844,590000000,2
-0.073730469,-1.021484375,-0.256835938,12.6953125,-0.122070313,-7.568359375,-0.328613281,0.693359375,-0.796875,-15.625,-3.41796875,6.530761719,590000000,2
-0.098632813,-1.012695313,-0.2578125,12.32910156,1.708984375,-7.629394531,-0.304199219,0.684082031,-0.772949219,-18.00537109,-5.310058594,5.737304688,590000000,2
-0.095703125,-1.026367188,-0.249023438,13.06152344,0.244140625,-7.690429688,-0.2890625,0.680664063,-0.770996094,-19.22607422,-0.915527344,5.920410156,590000000,2
-0.0703125,-1.029296875,-0.2421875,15.25878906,-1.770019531,-8.605957031,-0.337402344,0.686035156,-0.784667969,-19.71435547,2.9296875,6.286621094,590000000,2
-0.071777344,-1.023925781,-0.243652344,16.6015625,-3.540039063,-9.643554688,-0.33203125,0.703613281,-0.793945313,-20.26367188,-0.854492188,6.469726563,590000000,2
-0.075195313,-1.019042969,-0.235351563,16.35742188,-2.44140625,-9.826660156,-0.303710938,0.694824219,-0.777832031,-22.21679688,-0.854492188,7.385253906,590000000,2
-0.052246094,-1.02734375,-0.219238281,16.23535156,0.305175781,-9.216308594,-0.312988281,0.705566406,-0.775390625,-24.16992188,2.868652344,7.751464844,590000000,2
-0.053222656,-1.043457031,-0.209472656,16.41845703,6.469726563,-8.544921875,-0.330078125,0.706542969,-0.767089844,-26.91650391,0.732421875,7.873535156,590000000,2
-0.096191406,-1.030273438,-0.225585938,17.51708984,7.751464844,-9.094238281,-0.317382813,0.702148438,-0.779296875,-29.05273438,-2.990722656,8.178710938,590000000,2
-0.078125,-1.028320313,-0.220703125,19.47021484,-1.770019531,-10.7421875,-0.298828125,0.705078125,-0.797363281,-30.39550781,-0.427246094,9.033203125,590000000,2
-0.031738281,-1.021972656,-0.193359375,19.71435547,-5.859375,-10.68115234,-0.322753906,0.731445313,-0.796875,-32.16552734,3.601074219,9.582519531,590000000,2
-0.042480469,-1.030273438,-0.179199219,18.00537109,-2.014160156,-9.033203125,-0.335449219,0.75,-0.776855469,-36.25488281,1.403808594,10.25390625,590000000,2
-0.069335938,-1.030273438,-0.18359375,15.80810547,3.112792969,-7.202148438,-0.302734375,0.740234375,-0.737792969,-41.015625,-3.173828125,11.16943359,590000000,2
-0.067382813,-1.05078125,-0.186523438,15.86914063,3.90625,-6.774902344,-0.294433594,0.729980469,-0.703125,-43.45703125,-3.356933594,11.35253906,590000000,2
-0.05078125,-1.051269531,-0.201660156,19.71435547,-3.479003906,-8.911132813,-0.299316406,0.754882813,-0.715820313,-42.72460938,-1.159667969,11.41357422,590000000,2
-0.034179688,-1.025878906,-0.192871094,21.42333984,-7.873535156,-9.887695313,-0.31640625,0.7578125,-0.715332031,-43.45703125,0.915527344,11.59667969,591000000,2
-0.025390625,-1.039550781,-0.149902344,20.5078125,-6.958007813,-8.7890625,-0.292480469,0.760742188,-0.696289063,-44.921875,2.807617188,12.75634766,591000000,2
-0.0234375,-1.057128906,-0.140136719,19.95849609,-3.173828125,-7.202148438,-0.310058594,0.760253906,-0.694824219,-47.11914063,6.713867188,14.28222656,591000000,2
-0.024414063,-1.059570313,-0.154296875,20.5078125,2.746582031,-6.958007813,-0.333007813,0.765136719,-0.689941406,-50.35400391,4.699707031,15.44189453,591000000,2
-0.051757813,-1.041015625,-0.166015625,22.82714844,2.502441406,-8.483886719,-0.303222656,0.766601563,-0.670898438,-54.32128906,0.122070313,16.72363281,591000000,2
-0.0546875,-1.029296875,-0.152832031,24.59716797,-3.90625,-9.27734375,-0.277832031,0.756347656,-0.643554688,-57.86132813,0.427246094,18.24951172,591000000,2
-0.022949219,-1.047851563,-0.109375,24.35302734,-8.544921875,-8.544921875,-0.280761719,0.770996094,-0.633300781,-59.87548828,1.586914063,19.10400391,591000000,2
0.004394531,-1.049316406,-0.095214844,24.10888672,-9.094238281,-7.629394531,-0.269042969,0.788085938,-0.625,-61.46240234,0.122070313,20.62988281,591000000,2
0.003417969,-1.056640625,-0.105957031,24.10888672,-5.065917969,-7.629394531,-0.245117188,0.780761719,-0.600097656,-64.14794922,-0.549316406,21.66748047,591000000,2
-0.025390625,-1.0546875,-0.112304688,24.35302734,-1.586914063,-7.873535156,-0.2421875,0.786132813,-0.577636719,-66.89453125,2.807617188,21.66748047,591000000,2
-0.024902344,-1.038574219,-0.093261719,24.4140625,-1.770019531,-7.751464844,-0.248046875,0.775878906,-0.544433594,-70.86181641,4.699707031,21.36230469,591000000,2
-0.004394531,-1.069335938,-0.063964844,24.29199219,-3.479003906,-7.263183594,-0.239257813,0.77734375,-0.509765625,-74.70703125,2.685546875,22.03369141,591000000,2
0.010742188,-1.059570313,-0.067382813,24.84130859,-3.90625,-7.202148438,-0.223144531,0.781738281,-0.46875,-77.57568359,-2.075195313,22.82714844,591000000,2
-0.010742188,-1.024414063,-0.061035156,23.25439453,-0.671386719,-6.286621094,-0.19140625,0.788574219,-0.441894531,-78.00292969,-5.310058594,22.94921875,591000000,2
-0.007324219,-1.053710938,-0.044433594,21.91162109,-0.549316406,-5.554199219,-0.189941406,0.801269531,-0.421386719,-77.81982422,-1.525878906,23.01025391,591000000,2
0.0078125,-1.06640625,-0.044921875,21.72851563,-0.732421875,-5.187988281,-0.174804688,0.8046875,-0.385253906,-78.67431641,5.432128906,23.49853516,591000000,2
0.003417969,-1.059082031,-0.020019531,21.66748047,-0.549316406,-5.126953125,-0.174316406,0.789550781,-0.362304688,-80.01708984,12.02392578,24.10888672,591000000,2
0.004882813,-1.064941406,-0.016113281,22.03369141,-1.831054688,-5.432128906,-0.200195313,0.774902344,-0.348632813,-82.58056641,13.06152344,24.10888672,591000000,2
0.008300781,-1.050292969,-0.022460938,22.03369141,-0.854492188,-5.920410156,-0.202148438,0.78125,-0.313476563,-85.99853516,7.263183594,24.71923828,591000000,2
0.004882813,-1.048339844,0.007324219,21.17919922,0.122070313,-5.737304688,-0.18359375,0.801757813,-0.272949219,-88.37890625,-0.854492188,26.18408203,591000000,2
-0.021972656,-1.047363281,-0.007324219,20.44677734,-1.831054688,-4.39453125,-0.147949219,0.807128906,-0.247558594,-89.72167969,-8.117675781,26.85546875,591000000,2
-0.0078125,-1.059082031,-0.009765625,19.65332031,-5.920410156,-3.601074219,-0.122558594,0.762695313,-0.201171875,-91.55273438,-8.666992188,26.85546875,591000000,2
0.022949219,-1.069824219,-0.00390625,20.08056641,-6.530761719,-3.967285156,-0.091796875,0.772460938,-0.145507813,-91.85791016,-2.014160156,26.97753906,591000000,2
0.035644531,-1.071777344,0.006347656,20.87402344,-2.258300781,-4.821777344,-0.079589844,0.778320313,-0.132324219,-90.88134766,8.178710938,27.22167969,591000000,2
0.004882813,-1.056640625,0.005859375,22.33886719,0.366210938,-5.065917969,-0.116699219,0.760253906,-0.153320313,-90.27099609,16.54052734,26.79443359,591000000,2
-0.006835938,-1.055664063,0.016601563,23.07128906,-2.258300781,-5.065917969,-0.133789063,0.76953125,-0.122558594,-92.40722656,15.44189453,25.93994141,591000000,2
-0.00390625,-1.068847656,0.078613281,22.64404297,-5.432128906,-5.37109375,-0.115234375,0.771972656,-0.081542969,-95.21484375,10.25390625,27.46582031,591000000,2
0.016113281,-1.070800781,0.061523438,22.88818359,-6.042480469,-5.249023438,-0.096679688,0.733398438,-0.053710938,-98.14453125,5.249023438,28.99169922,591000000,2
0.056152344,-1.063964844,0.0390625,22.64404297,-4.028320313,-4.638671875,-0.0625,0.692871094,-0.034179688,-101.2573242,3.845214844,29.11376953,591000000,2
0.0390625,-1.064453125,0.060546875,22.76611328,-2.807617188,-4.272460938,-0.041992188,0.680664063,0.025390625,-104.2480469,7.934570313,28.99169922,591000000,2
-0.005371094,-1.06640625,0.026855469,24.53613281,-5.981445313,-5.004882813,-0.0390625,0.707519531,0.084472656,-106.3232422,12.45117188,29.47998047,591000000,2
0.018066406,-1.044921875,0.069824219,25.08544922,-6.958007813,-5.676269531,-0.025390625,0.695800781,0.149902344,-108.5205078,13.73291016,30.33447266,591000000,2
0.020019531,-1.023925781,0.114257813,25.20751953,-1.647949219,-5.798339844,-0.022949219,0.684570313,0.219726563,-109.8022461,13.54980469,30.45654297,591000000,2
-0.018066406,-1.053222656,0.147460938,24.71923828,-0.427246094,-5.798339844,0.001464844,0.696777344,0.262695313,-109.375,9.582519531,29.41894531,591000000,2
0.009277344,-1.064941406,0.108886719,25.45166016,-5.737304688,-6.042480469,0.008300781,0.658203125,0.304199219,-111.0229492,6.164550781,29.41894531,591000000,2
0.072753906,-1.053710938,0.11328125,24.71923828,-5.676269531,-5.798339844,0.01953125,0.646484375,0.361816406,-111.8164063,-1.281738281,28.74755859,591000000,2
0.06640625,-1.066894531,0.149414063,23.19335938,-2.502441406,-4.699707031,0.0703125,0.646484375,0.412109375,-111.9384766,-10.31494141,27.28271484,591000000,2
0.005371094,-1.065917969,0.129882813,22.70507813,-4.150390625,-4.028320313,0.115722656,0.598632813,0.453613281,-111.5722656,-7.8125,26.73339844,591000000,2
0.014648438,-1.038574219,0.138183594,21.66748047,-9.338378906,-3.41796875,0.131347656,0.554199219,0.510253906,-109.4360352,3.112792969,25.14648438,591000000,2
0.05859375,-1.048339844,0.157714844,19.65332031,-10.00976563,-2.563476563,0.108398438,0.5859375,0.518554688,-104.3701172,15.07568359,22.76611328,591000000,2
0.0625,-1.042480469,0.146484375,18.12744141,-8.056640625,-1.892089844,0.053222656,0.579101563,0.533203125,-104.0649414,21.91162109,22.03369141,591000000,2
0.015136719,-1.017578125,0.163085938,17.15087891,-7.32421875,-1.831054688,0.058105469,0.562988281,0.557617188,-104.9194336,18.12744141,21.17919922,591000000,2
0.049316406,-1.088867188,0.188964844,16.66259766,-6.042480469,-3.051757813,0.0625,0.545410156,0.562011719,-105.46875,14.6484375,21.36230469,591000000,2
0.085449219,-1.068847656,0.159667969,17.27294922,-2.807617188,-3.295898438,0.033203125,0.498535156,0.605957031,-109.1308594,10.13183594,21.17919922,591000000,2
0.077636719,-1.012207031,0.126464844,15.86914063,-2.746582031,-2.075195313,0.049804688,0.486816406,0.659179688,-111.0839844,0.427246094,20.38574219,591000000,2
0.024902344,-1.007324219,0.170410156,13.97705078,-4.39453125,-1.525878906,0.078125,0.421875,0.696777344,-112.3046875,-6.164550781,21.60644531,591000000,2
-0.014648438,-1.029785156,0.247558594,14.58740234,-1.525878906,-2.624511719,0.12109375,0.435546875,0.68359375,-106.628418,-9.582519531,21.78955078,591000000,2
0.027832031,-1.094726563,0.236328125,16.54052734,3.051757813,-4.211425781,0.111328125,0.409667969,0.680664063,-104.0649414,-2.624511719,21.484375,591000000,2
0.095214844,-1.056152344,0.182617188,17.51708984,6.713867188,-4.699707031,0.087402344,0.364746094,0.752929688,-106.5673828,3.479003906,19.47021484,591000000,2
0.06640625,-0.997070313,0.142089844,15.99121094,6.469726563,-3.601074219,0.106445313,0.368164063,0.753417969,-105.5908203,4.943847656,18.5546875,591000000,2
0.024902344,-1.014160156,0.194335938,13.79394531,-0.671386719,-2.44140625,0.08203125,0.291503906,0.695800781,-103.8208008,7.202148438,21.72851563,592000000,2
0.002441406,-1.032714844,0.2734375,13.42773438,-4.028320313,-2.563476563,0.067382813,0.290039063,0.657714844,-100.8911133,-0.854492188,22.15576172,592000000,2
0.078613281,-1.065429688,0.229003906,14.58740234,2.319335938,-3.540039063,0.076171875,0.265136719,0.76171875,-105.9570313,-12.57324219,18.92089844,592000000,2
0.096191406,-1.018066406,0.197753906,15.93017578,13.91601563,-5.126953125,0.185058594,0.265625,0.846679688,-108.3984375,-13.00048828,18.31054688,592000000,2
0.006347656,-1.083496094,0.22265625,17.63916016,12.02392578,-5.187988281,0.184570313,0.25,0.822753906,-106.3842773,5.737304688,22.09472656,592000000,2
0.025878906,-1.078125,0.274414063,20.14160156,-2.075195313,-5.737304688,0.061035156,0.228027344,0.732421875,-102.722168,12.39013672,23.25439453,592000000,2
0.101074219,-1.02734375,0.290527344,19.40917969,-5.065917969,-6.042480469,0.020507813,0.1015625,0.766113281,-107.4829102,-6.164550781,19.40917969,592000000,2
0.091308594,-1.022460938,0.231933594,18.00537109,6.8359375,-5.981445313,0.131835938,0.045898438,0.899902344,-112.121582,-22.64404297,16.78466797,592000000,2
0.047363281,-1.016113281,0.206054688,19.28710938,13.48876953,-6.225585938,0.216796875,0.095703125,0.920898438,-110.2294922,-12.08496094,21.30126953,592000000,2
0.012207031,-1.0390625,0.255371094,21.17919922,7.446289063,-6.286621094,0.133789063,0.124023438,0.858398438,-108.0932617,-1.342773438,25.32958984,592000000,2
0.048828125,-1.032714844,0.328125,20.62988281,-1.892089844,-6.286621094,0.115234375,0.028320313,0.788085938,-107.1166992,-13.54980469,22.70507813,592000000,2
0.111816406,-1.004882813,0.297851563,16.72363281,2.014160156,-5.737304688,0.181152344,-0.132324219,0.873535156,-111.6943359,-15.44189453,17.45605469,592000000,2
0.059570313,-0.990722656,0.217285156,14.77050781,11.10839844,-4.8828125,0.276367188,-0.084960938,0.988769531,-109.6801758,6.591796875,18.61572266,592000000,2
0.044433594,-1.034179688,0.229003906,15.86914063,8.422851563,-4.150390625,0.17578125,-0.05078125,0.953125,-108.8867188,30.57861328,23.68164063,592000000,2
0.054199219,-1.0390625,0.344238281,17.70019531,5.554199219,-5.310058594,0.003417969,-0.009277344,0.912109375,-110.0463867,10.43701172,21.78955078,592000000,2
0.056152344,-1.0234375,0.390625,18.31054688,5.126953125,-6.774902344,0.106445313,-0.125976563,0.950683594,-115.1123047,-32.34863281,17.33398438,592000000,2
0.076171875,-0.991210938,0.338867188,15.01464844,4.272460938,-6.164550781,0.303710938,-0.279296875,1.009277344,-114.2578125,-32.59277344,16.96777344,592000000,2
0.091796875,-1.029785156,0.266601563,12.14599609,3.479003906,-4.028320313,0.311523438,-0.286621094,0.999023438,-104.2480469,7.995605469,21.17919922,592000000,2
0.103027344,-1.049316406,0.256835938,12.93945313,3.479003906,-2.990722656,0.1015625,-0.2109375,0.942871094,-100.6469727,26.24511719,21.78955078,592000000,2
0.070800781,-0.997558594,0.312011719,15.38085938,6.774902344,-3.662109375,0.052246094,-0.207519531,0.971191406,-106.3842773,-8.422851563,13.73291016,592000000,2
0.044433594,-1.015625,0.3828125,14.95361328,7.141113281,-4.39453125,0.235839844,-0.28515625,1.012207031,-107.0556641,-27.64892578,11.23046875,592000000,2
0.07421875,-0.982910156,0.359375,12.02392578,4.821777344,-4.028320313,0.254394531,-0.476074219,0.96875,-102.7832031,4.333496094,16.47949219,592000000,2
0.077148438,-0.989257813,0.322265625,9.643554688,2.258300781,-2.319335938,0.111816406,-0.423339844,0.970214844,-96.37451172,30.57861328,19.71435547,592000000,2
0.065917969,-1.023925781,0.327148438,9.704589844,0.793457031,-1.831054688,0.029296875,-0.307617188,0.979980469,-97.90039063,9.033203125,16.23535156,592000000,2
0.053710938,-1.012695313,0.3515625,11.23046875,6.34765625,-3.967285156,0.138183594,-0.410644531,0.985839844,-103.1494141,-21.91162109,15.56396484,592000000,2
0.071777344,-1.010253906,0.374511719,11.77978516,10.00976563,-6.042480469,0.247070313,-0.481445313,0.938964844,-99.79248047,-19.71435547,19.04296875,592000000,2
0.087890625,-0.99609375,0.373535156,9.521484375,8.911132813,-5.310058594,0.241699219,-0.540527344,0.943359375,-97.22900391,1.708984375,17.88330078,592000000,2
0.100097656,-0.985839844,0.349121094,6.469726563,4.211425781,-2.624511719,0.138183594,-0.534179688,1.008300781,-96.6796875,10.37597656,12.87841797,592000000,2
0.067871094,-0.999511719,0.325195313,4.333496094,0.427246094,-0.244140625,0.127929688,-0.497070313,1.005859375,-93.07861328,2.197265625,10.68115234,592000000,2
0.067382813,-1.0234375,0.353515625,4.516601563,0.48828125,-0.854492188,0.160644531,-0.557128906,0.922851563,-90.02685547,3.295898438,14.16015625,592000000,2
0.06640625,-1.002929688,0.375,5.920410156,6.591796875,-3.356933594,0.146484375,-0.581542969,0.830078125,-86.18164063,12.39013672,16.11328125,592000000,2
0.052734375,-0.995605469,0.366699219,6.225585938,6.164550781,-3.90625,0.115234375,-0.644042969,0.865234375,-90.27099609,16.72363281,14.16015625,592000000,2
0.09375,-0.998535156,0.347167969,5.676269531,-1.281738281,-2.624511719,0.087402344,-0.703613281,0.985351563,-96.06933594,10.43701172,9.704589844,592000000,2
0.101074219,-0.994628906,0.353027344,4.638671875,-2.868652344,-1.403808594,0.088867188,-0.729003906,1.010742188,-93.87207031,4.516601563,10.37597656,592000000,2
0.075195313,-0.987304688,0.361816406,2.9296875,0.183105469,-0.9765625,0.112304688,-0.719238281,0.874511719,-85.08300781,6.042480469,16.17431641,592000000,2
0.069335938,-0.994140625,0.375488281,1.037597656,2.624511719,-0.915527344,0.115234375,-0.74609375,0.837402344,-83.43505859,6.225585938,18.79882813,592000000,2
0.068847656,-0.994140625,0.360839844,-0.122070313,3.112792969,-1.037597656,0.089355469,-0.750488281,0.951660156,-85.99853516,-5.37109375,12.51220703,592000000,2
0.078125,-0.991699219,0.359863281,-1.037597656,2.868652344,-0.793457031,0.148925781,-0.7734375,0.984863281,-85.02197266,-10.07080078,8.605957031,592000000,2
0.074707031,-0.997558594,0.365722656,-1.647949219,2.014160156,-0.366210938,0.201171875,-0.814941406,0.90234375,-78.24707031,9.338378906,13.30566406,592000000,2
0.081542969,-0.996582031,0.372070313,-1.220703125,-1.037597656,-0.061035156,0.115234375,-0.8046875,0.75,-70.06835938,28.99169922,17.15087891,592000000,2
0.079589844,-1.010253906,0.34765625,-0.366210938,-2.990722656,0.183105469,0.006835938,-0.788574219,0.799316406,-72.81494141,18.00537109,14.03808594,592000000,2
0.077636719,-0.992675781,0.354003906,-0.244140625,-3.051757813,0.122070313,0.05859375,-0.769042969,0.887207031,-75.68359375,-12.08496094,4.699707031,592000000,2
0.062988281,-0.991210938,0.366699219,-0.427246094,-2.807617188,0.244140625,0.133789063,-0.813476563,0.849121094,-72.87597656,-12.57324219,6.408691406,592000000,2
0.068847656,-1.005859375,0.360351563,-0.183105469,-2.990722656,-0.305175781,0.109375,-0.859863281,0.706542969,-65.79589844,2.319335938,13.73291016,592000000,2
0.087890625,-0.996582031,0.354980469,-0.305175781,-1.281738281,-0.793457031,0.05078125,-0.91015625,0.619140625,-62.56103516,5.126953125,12.6953125,592000000,2
0.093261719,-1.0078125,0.336425781,0.549316406,0.671386719,-0.671386719,0.067382813,-0.908203125,0.665527344,-63.72070313,4.211425781,9.826660156,592000000,2
0.083007813,-1.015136719,0.348632813,2.380371094,1.525878906,-0.915527344,0.05859375,-0.874023438,0.69140625,-65.49072266,4.455566406,9.216308594,592000000,2
0.085449219,-1,0.371582031,2.746582031,1.159667969,-1.159667969,0.0078125,-0.9453125,0.626464844,-66.52832031,2.502441406,9.887695313,592000000,2
0.0703125,-0.981933594,0.3828125,1.281738281,0.854492188,-0.915527344,0.06640625,-0.974121094,0.546386719,-64.51416016,0.122070313,11.96289063,592000000,2
0.062988281,-0.979980469,0.397460938,-1.342773438,-0.366210938,-0.061035156,0.058105469,-1.020996094,0.506347656,-65.85693359,7.32421875,12.93945313,592000000,2
0.075195313,-0.986328125,0.382324219,-3.662109375,-2.319335938,0.854492188,0.069824219,-1.001464844,0.529296875,-67.62695313,15.93017578,13.42773438,593000000,2
0.098144531,-1.01171875,0.337890625,-4.455566406,-2.502441406,1.342773438,0.026855469,-0.980957031,0.533691406,-70.98388672,16.17431641,13.06152344,593000000,2
0.090820313,-1.006835938,0.331542969,-4.089355469,-0.549316406,1.098632813,-0.018066406,-1.034667969,0.486816406,-73.54736328,1.159667969,10.7421875,593000000,2
0.055175781,-0.994628906,0.365234375,-4.211425781,-0.549316406,0.9765625,0.008789063,-1.06640625,0.395996094,-74.95117188,-9.27734375,12.20703125,593000000,2
0.060546875,-0.982910156,0.393066406,-5.187988281,-4.028320313,1.220703125,0.073242188,-1.024902344,0.463378906,-79.04052734,-7.934570313,15.56396484,593000000,2
0.074707031,-0.986328125,0.379394531,-6.774902344,-6.652832031,2.014160156,0.106933594,-1.040527344,0.587402344,-82.88574219,-11.53564453,15.99121094,593000000,2
0.077148438,-0.998535156,0.344238281,-7.995605469,-7.690429688,2.868652344,0.096679688,-1.0546875,0.516601563,-76.84326172,-18.85986328,11.35253906,593000000,2
0.078125,-1.006835938,0.333984375,-7.873535156,-7.629394531,3.051757813,0.086914063,-1.077148438,0.385742188,-69.58007813,-12.87841797,9.582519531,593000000,2
0.073730469,-1.027832031,0.323730469,-6.286621094,-5.37109375,2.014160156,0.056640625,-1.069335938,0.440429688,-69.03076172,5.493164063,12.63427734,593000000,2
0.092285156,-1.022460938,0.3359375,-4.211425781,-1.403808594,0.366210938,0.112304688,-1.034667969,0.536132813,-70.92285156,1.220703125,12.45117188,593000000,2
0.095214844,-1.010742188,0.333007813,-2.9296875,2.197265625,-0.183105469,0.091308594,-0.982421875,0.46875,-66.58935547,-10.62011719,8.422851563,593000000,2
0.08984375,-1.008789063,0.331054688,-2.868652344,1.770019531,0.671386719,0.026367188,-1.061035156,0.350585938,-62.07275391,-16.6015625,5.554199219,593000000,2
0.079101563,-1.000976563,0.343261719,-3.479003906,0.671386719,1.342773438,0.088378906,-1.086425781,0.372558594,-58.34960938,-9.216308594,4.39453125,593000000,2
0.072265625,-1.008789063,0.335449219,-3.479003906,2.136230469,1.098632813,0.165039063,-1.075683594,0.521484375,-56.76269531,6.713867188,6.164550781,593000000,2
0.083496094,-1.020996094,0.322265625,-2.380371094,6.103515625,0,0.04296875,-1.006347656,0.368164063,-49.07226563,18.67675781,6.103515625,593000000,2
0.098144531,-1.021972656,0.328613281,-1.220703125,9.887695313,-0.793457031,-0.095703125,-0.999023438,0.231445313,-44.67773438,5.920410156,5.615234375,593000000,2
0.036621094,-0.996582031,0.350097656,-0.427246094,9.521484375,-0.549316406,0.038085938,-1.041015625,0.229980469,-45.41015625,-15.74707031,2.563476563,593000000,2
0.028808594,-0.997070313,0.345703125,-0.061035156,2.197265625,0,0.172363281,-1.061523438,0.354492188,-47.79052734,-4.272460938,-0.122070313,593000000,2
0.105957031,-1.008789063,0.33984375,0.427246094,-0.244140625,-0.183105469,0.087402344,-1.0703125,0.362304688,-46.02050781,30.45654297,1.953125,593000000,2
0.111816406,-1.020507813,0.33203125,0.854492188,6.652832031,-0.48828125,-0.157226563,-1.054199219,0.193847656,-38.94042969,42.35839844,5.249023438,593000000,2
0.069335938,-1.020996094,0.328125,0.854492188,8.972167969,0,-0.229492188,-1.084472656,0.09375,-36.07177734,12.45117188,7.385253906,593000000,2
0.056640625,-0.998535156,0.340820313,0.732421875,4.516601563,0.427246094,0.006835938,-1.070800781,0.205566406,-37.23144531,-17.88330078,6.469726563,593000000,3
0.063964844,-0.996582031,0.356445313,-0.244140625,1.647949219,0.549316406,0.145507813,-1.063476563,0.278808594,-39.24560547,-10.86425781,5.249023438,593000000,3
0.078125,-0.9921875,0.3671875,-1.770019531,2.807617188,0.671386719,0.0234375,-1.099121094,0.173828125,-38.02490234,9.338378906,5.310058594,593000000,3
0.059082031,-1.002929688,0.348632813,-2.9296875,4.821777344,1.159667969,-0.073730469,-1.087890625,0.063964844,-33.75244141,11.71875,5.493164063,593000000,3
0.045898438,-1.015136719,0.331542969,-2.990722656,2.990722656,1.342773438,0.008300781,-1.021972656,0.112792969,-31.92138672,5.004882813,4.455566406,593000000,3
0.065917969,-1.003417969,0.333007813,-2.197265625,-0.610351563,1.220703125,0.018554688,-1.025878906,0.149902344,-34.05761719,5.37109375,1.831054688,593000000,3
0.068359375,-1.013671875,0.340820313,-1.647949219,-0.915527344,1.037597656,-0.067382813,-1.078613281,0.078613281,-35.27832031,5.615234375,1.708984375,593000000,3
0.06640625,-1.004394531,0.337402344,-1.220703125,0.244140625,0.793457031,-0.010742188,-1.100097656,0.022949219,-34.72900391,1.892089844,2.990722656,593000000,3
0.06640625,-1.010742188,0.33984375,-1.281738281,0.732421875,0.732421875,0.091796875,-1.041992188,0.057128906,-33.32519531,11.04736328,2.746582031,593000000,3
0.0625,-1.010742188,0.339355469,-1.525878906,0,0.48828125,0.029296875,-0.969726563,0.099121094,-33.38623047,22.39990234,1.098632813,593000000,3
0.063476563,-1.002441406,0.3359375,-1.953125,-1.220703125,0.732421875,-0.111328125,-0.981445313,0.016113281,-33.32519531,12.45117188,-2.075195313,593000000,3
0.063476563,-1.0078125,0.328613281,-2.075195313,-1.46484375,1.159667969,-0.102050781,-1.018554688,-0.081054688,-33.81347656,-10.68115234,-3.051757813,593000000,3
0.062011719,-1.008300781,0.338378906,-2.197265625,-1.770019531,1.220703125,0.039550781,-1.025878906,-0.060058594,-34.72900391,-16.54052734,-3.662109375,593000000,3
0.059570313,-1.005859375,0.336425781,-2.136230469,-1.281738281,0.9765625,0.052734375,-1.029296875,0.057617188,-35.82763672,4.943847656,-2.9296875,593000000,3
0.063964844,-1.013671875,0.335449219,-1.892089844,-0.183105469,0.305175781,-0.089355469,-1.009277344,0.014160156,-34.48486328,20.87402344,-0.854492188,593000000,3
0.071777344,-1.014160156,0.330078125,-2.075195313,0.305175781,-0.122070313,-0.156738281,-0.982910156,-0.088867188,-32.59277344,10.7421875,0.48828125,593000000,3
0.059570313,-1.000976563,0.325195313,-2.685546875,-0.427246094,0.366210938,-0.079101563,-1.0078125,-0.104492188,-34.05761719,-6.469726563,0.427246094,593000000,3
0.05078125,-1.013671875,0.325683594,-2.624511719,-2.258300781,0.610351563,0.004882813,-1.004882813,0.01171875,-35.33935547,-4.760742188,-0.549316406,593000000,3
0.062988281,-1.009277344,0.33984375,-1.403808594,-3.112792969,-0.183105469,-0.025390625,-0.986328125,0.04296875,-33.75244141,6.530761719,0.122070313,593000000,3
0.077636719,-1.013671875,0.337402344,-0.854492188,-1.525878906,-0.244140625,-0.095214844,-0.984863281,-0.055175781,-30.63964844,7.995605469,2.990722656,593000000,3
0.060546875,-1.019042969,0.324707031,-1.281738281,-1.281738281,0.244140625,-0.079101563,-1.043945313,-0.104980469,-30.94482422,1.159667969,3.90625,593000000,3
0.05859375,-1.011230469,0.327636719,-1.403808594,-3.662109375,0.122070313,-0.03125,-1.054199219,-0.060058594,-29.90722656,0.305175781,3.540039063,593000000,3
0.064453125,-1.005371094,0.334472656,-1.403808594,-3.479003906,-0.122070313,-0.030273438,-0.997558594,-0.008300781,-29.23583984,3.479003906,4.211425781,593000000,3
0.06640625,-1.016601563,0.32421875,-1.037597656,-1.586914063,-0.366210938,-0.018066406,-0.979492188,-0.044433594,-29.47998047,0.9765625,5.432128906,593000000,3
0.069824219,-1.016113281,0.328613281,-0.793457031,-0.427246094,-0.671386719,-0.020019531,-1.045898438,-0.125,-29.17480469,0.244140625,4.760742188,593000000,3
0.067871094,-1.010742188,0.335449219,-0.915527344,-0.793457031,-0.549316406,-0.036132813,-1.080078125,-0.105957031,-25.75683594,2.685546875,4.089355469,593000000,3
0.066894531,-1.008300781,0.333007813,-1.342773438,-2.136230469,-0.305175781,0.009277344,-0.983398438,-0.057128906,-19.95849609,1.037597656,4.150390625,593000000,3
0.062988281,-1.002929688,0.335449219,-1.831054688,-1.892089844,-0.061035156,0.054199219,-0.981933594,-0.052246094,-22.52197266,0.549316406,4.333496094,593000000,3
0.059570313,-1.010253906,0.332519531,-2.380371094,-0.915527344,-0.122070313,-0.010742188,-1.063964844,-0.10546875,-24.90234375,0.549316406,3.051757813,593000000,3
0.06640625,-1.014648438,0.324707031,-2.075195313,0,-0.671386719,-0.032226563,-1.064941406,-0.15625,-20.87402344,-5.859375,0.549316406,594000000,3
0.062011719,-1.013671875,0.325195313,-1.647949219,0.671386719,-0.9765625,0.030273438,-1.033691406,-0.130859375,-18.00537109,-5.859375,0.793457031,594000000,3
0.063476563,-1.012695313,0.328125,-1.525878906,-0.854492188,-0.793457031,0.055664063,-1.038085938,-0.068359375,-17.94433594,2.868652344,0.732421875,594000000,3
0.072753906,-1.015136719,0.325195313,-1.708984375,-2.868652344,-0.610351563,-0.038085938,-1.034179688,-0.094238281,-16.41845703,10.68115234,1.708984375,594000000,3
0.076171875,-1.012207031,0.328125,-2.258300781,-2.319335938,-0.48828125,-0.080078125,-1.021484375,-0.16796875,-13.97705078,2.197265625,1.770019531,594000000,3
0.060546875,-1.003417969,0.336425781,-3.051757813,-0.549316406,-0.366210938,0.009277344,-1.008300781,-0.172363281,-11.77978516,-6.225585938,1.281738281,594000000,3
0.057617188,-1.012207031,0.324707031,-3.173828125,-0.9765625,-0.183105469,0.034179688,-1.006835938,-0.126953125,-10.80322266,0,0.732421875,594000000,3
0.072265625,-1.017578125,0.318359375,-2.990722656,-1.892089844,-0.183105469,-0.039550781,-0.994628906,-0.147460938,-10.31494141,5.004882813,0.793457031,594000000,3
0.077636719,-1.017578125,0.318359375,-2.685546875,-1.098632813,-0.48828125,-0.026855469,-0.989746094,-0.188964844,-10.00976563,-0.244140625,1.525878906,594000000,3
0.0703125,-1.021484375,0.316894531,-1.953125,-0.183105469,-0.793457031,0.032226563,-1.001464844,-0.188964844,-9.338378906,0.183105469,0.854492188,594000000,3
0.070800781,-1.01953125,0.315917969,-0.915527344,-0.305175781,-1.037597656,-0.024902344,-1.005859375,-0.185058594,-8.544921875,7.32421875,-1.037597656,594000000,3
0.066894531,-1.015136719,0.320800781,-0.305175781,0.122070313,-1.220703125,-0.093261719,-0.989257813,-0.206542969,-7.751464844,4.150390625,-0.732421875,594000000,3
0.069335938,-1.008300781,0.327636719,-0.549316406,-0.183105469,-1.159667969,-0.025390625,-0.975097656,-0.21484375,-7.8125,-5.493164063,1.159667969,594000000,3
0.067871094,-1.004882813,0.330078125,-1.159667969,-0.366210938,-0.671386719,0.065429688,-0.9921875,-0.180664063,-8.117675781,-2.502441406,0.9765625,594000000,3
0.067382813,-1.012695313,0.324707031,-1.770019531,-1.037597656,-0.183105469,0.008300781,-1.025878906,-0.189453125,-7.629394531,11.47460938,-0.061035156,594000000,3
0.076171875,-1.017578125,0.320800781,-2.136230469,-1.586914063,-0.183105469,-0.091308594,-1.003417969,-0.228515625,-6.164550781,12.08496094,0,594000000,3
0.075195313,-1.021484375,0.314453125,-1.831054688,-1.220703125,-0.305175781,-0.062988281,-0.952636719,-0.227050781,-6.713867188,-1.708984375,0.732421875,594000000,3
0.069824219,-1.022460938,0.307617188,-0.793457031,-0.9765625,-0.549316406,0.030273438,-0.983398438,-0.181152344,-8.422851563,-10.25390625,0.793457031,594000000,3
0.0703125,-1.023925781,0.311523438,0.427246094,-0.732421875,-0.915527344,0.031738281,-1.0234375,-0.178222656,-6.042480469,-1.953125,0,594000000,3
0.072753906,-1.01171875,0.324707031,0.915527344,0,-1.220703125,-0.052246094,-1.016113281,-0.222167969,-2.9296875,5.187988281,0.244140625,594000000,3
0.066894531,-1.0078125,0.326171875,0.732421875,0.793457031,-1.098632813,-0.053222656,-0.96875,-0.213378906,-2.9296875,0.122070313,0.732421875,594000000,3
0.064453125,-1.001464844,0.335449219,-0.244140625,0.915527344,-0.671386719,0.010253906,-0.971679688,-0.172851563,-5.310058594,-5.493164063,0.671386719,594000000,3
0.066894531,-1.006835938,0.333496094,-1.342773438,0.366210938,-0.305175781,-0.017089844,-1.014160156,-0.196289063,-5.126953125,-3.662109375,-0.122070313,594000000,3
0.068847656,-1.017089844,0.318359375,-1.708984375,-0.244140625,-0.305175781,-0.064453125,-1.012207031,-0.258789063,-2.319335938,-4.089355469,0.122070313,594000000,3
0.073242188,-1.024414063,0.309082031,-1.220703125,-0.244140625,-0.48828125,0.010742188,-1.000976563,-0.23046875,-0.915527344,-6.469726563,0.793457031,594000000,3
0.080566406,-1.01953125,0.311523438,-0.732421875,0.183105469,-0.366210938,0.050292969,-1.004394531,-0.186035156,-0.427246094,3.41796875,0.427246094,594000000,3
0.070800781,-1.015136719,0.318359375,-0.549316406,0.793457031,0.061035156,-0.059570313,-1.012695313,-0.228515625,-0.610351563,11.59667969,-0.122070313,594000000,3
0.065917969,-1.01171875,0.328613281,-0.48828125,0.671386719,0.183105469,-0.067382813,-0.979003906,-0.256835938,-0.610351563,2.990722656,-0.183105469,594000000,3
0.064453125,-1.01171875,0.325195313,-0.610351563,0,0.061035156,0.046386719,-0.968261719,-0.225097656,-2.075195313,-3.479003906,0.427246094,594000000,3
0.067382813,-1.012207031,0.318847656,-0.671386719,-1.037597656,0.122070313,0.018554688,-1.026367188,-0.195800781,-2.624511719,4.516601563,-0.183105469,594000000,3
0.071777344,-1.016601563,0.315429688,-0.732421875,-1.220703125,0.183105469,-0.096191406,-1.030761719,-0.235839844,0.9765625,5.615234375,-1.770019531,594000000,3
0.071777344,-1.012695313,0.318847656,-0.732421875,-0.915527344,0.244140625,-0.057128906,-0.966308594,-0.252441406,3.295898438,-5.310058594,-0.9765625,594000000,3
0.072753906,-1.014648438,0.318847656,-0.915527344,-0.793457031,0.427246094,0.068359375,-0.958984375,-0.205566406,0.366210938,-7.263183594,1.037597656,594000000,3
0.07421875,-1.020019531,0.318359375,-0.915527344,-0.610351563,0.48828125,0.0234375,-1.019042969,-0.196289063,-2.258300781,3.173828125,-0.305175781,594000000,3
0.068359375,-1.016113281,0.322265625,-0.732421875,0.061035156,0.183105469,-0.083007813,-1.025390625,-0.243164063,0.854492188,4.577636719,-2.868652344,594000000,3
0.066894531,-1.016113281,0.31640625,-0.366210938,-0.48828125,0.122070313,-0.017089844,-0.96875,-0.234375,4.211425781,-1.831054688,-1.708984375,594000000,3
0.07421875,-1.018066406,0.318359375,-0.183105469,-0.9765625,0.183105469,0.0546875,-0.96484375,-0.200195313,3.112792969,3.662109375,0.244140625,594000000,3
0.068847656,-1.01171875,0.317871094,-0.244140625,-0.122070313,0.305175781,-0.056152344,-0.998535156,-0.213867188,2.075195313,11.53564453,0.061035156,594000000,3
0.065917969,-1.013183594,0.31640625,0,-0.061035156,0.366210938,-0.1171875,-0.987304688,-0.258789063,2.868652344,0.915527344,-1.159667969,594000000,3
0.067382813,-1.017089844,0.316894531,0.305175781,0.183105469,0.244140625,-0.0078125,-0.984863281,-0.243652344,1.281738281,-12.20703125,-1.098632813,594000000,3
0.070800781,-1.018066406,0.318847656,0.610351563,1.098632813,0,0.057128906,-0.993652344,-0.198730469,0.671386719,-5.249023438,-0.305175781,594000000,3
0.0703125,-1.017578125,0.318847656,0.793457031,1.525878906,-0.366210938,-0.058105469,-0.998046875,-0.225097656,2.380371094,6.408691406,0.427246094,594000000,3
0.067382813,-1.015136719,0.3203125,0.9765625,0.854492188,-0.305175781,-0.116699219,-0.977050781,-0.265136719,3.540039063,-0.854492188,0.915527344,594000000,3
0.069824219,-1.01171875,0.32421875,0.793457031,0.122070313,-0.244140625,-0.007324219,-0.994140625,-0.244628906,1.708984375,-11.84082031,0.9765625,594000000,3
0.06640625,-1.008300781,0.327148438,0.122070313,0.305175781,0,0.071777344,-1.003417969,-0.201660156,1.46484375,-2.380371094,0.793457031,594000000,3
0.069824219,-1.014648438,0.321289063,-0.183105469,0.549316406,0.183105469,-0.033203125,-0.989257813,-0.223144531,2.685546875,12.93945313,1.647949219,594000000,3
0.066894531,-1.017089844,0.319824219,-0.122070313,1.647949219,0,-0.110351563,-0.988769531,-0.255859375,2.075195313,7.507324219,2.014160156,594000000,3
0.064453125,-1.017578125,0.3203125,0.122070313,1.708984375,-0.366210938,-0.03515625,-1.009277344,-0.239746094,0.671386719,-6.652832031,1.525878906,594000000,3
0.065429688,-1.012695313,0.320800781,0.122070313,0.915527344,-0.366210938,0.017578125,-1.01171875,-0.229492188,1.159667969,-5.859375,1.708984375,594000000,3
0.069824219,-1.015136719,0.322265625,-0.183105469,0.244140625,-0.122070313,-0.032226563,-0.987304688,-0.217773438,1.892089844,0.610351563,2.075195313,594000000,3
0.071777344,-1.010253906,0.325195313,-0.793457031,0.549316406,0,-0.017578125,-0.981445313,-0.184570313,0.732421875,-1.525878906,1.708984375,595000000,3
0.0625,-1.008300781,0.328125,-1.586914063,0.854492188,0.183105469,0.020019531,-0.989746094,-0.201171875,0.549316406,0.122070313,1.342773438,595000000,3
0.059570313,-1.014160156,0.32421875,-1.892089844,-0.48828125,0.244140625,-0.038574219,-0.997558594,-0.247070313,1.525878906,4.821777344,1.281738281,595000000,3
0.069335938,-1.019042969,0.317871094,-1.831054688,-1.525878906,-0.061035156,-0.068847656,-0.985351563,-0.236328125,2.44140625,-0.915527344,1.159667969,595000000,3
0.074707031,-1.018554688,0.314453125,-1.281738281,-0.793457031,-0.366210938,0.00390625,-0.9765625,-0.210449219,1.708984375,-8.30078125,1.037597656,595000000,3
0.064941406,-1.016113281,0.316894531,-0.854492188,0.427246094,-0.366210938,0.01953125,-0.9921875,-0.200683594,-0.305175781,-3.662109375,0.671386719,595000000,3
0.064941406,-1.014160156,0.313964844,-0.549316406,-0.122070313,-0.244140625,-0.062988281,-1.005371094,-0.235839844,-0.244140625,0.061035156,-0.061035156,595000000,3
0.07421875,-1.017578125,0.319824219,-0.366210938,-0.671386719,-0.305175781,-0.028808594,-0.993652344,-0.232421875,1.159667969,-5.310058594,-0.061035156,595000000,3
0.066894531,-1.016113281,0.321289063,-0.48828125,0.122070313,-0.427246094,0.04296875,-0.975097656,-0.200195313,1.525878906,-0.549316406,0.671386719,595000000,3
0.063964844,-1.013183594,0.321777344,-0.732421875,-0.183105469,-0.48828125,-0.049316406,-0.998535156,-0.217285156,0.793457031,8.239746094,0.671386719,595000000,3
0.067871094,-1.012207031,0.317871094,-1.159667969,-1.037597656,-0.366210938,-0.104003906,-0.9921875,-0.232421875,0.610351563,-0.122070313,-0.305175781,595000000,3
0.069335938,-1.016113281,0.318847656,-1.342773438,-1.220703125,-0.305175781,-0.006835938,-0.98046875,-0.215820313,-0.427246094,-10.31494141,-0.183105469,595000000,3
0.066894531,-1.015136719,0.322265625,-1.403808594,-1.159667969,-0.305175781,0.052734375,-0.995117188,-0.19921875,-0.793457031,-2.9296875,0.9765625,595000000,3
0.065429688,-1.014648438,0.318359375,-1.46484375,-1.46484375,-0.366210938,-0.03515625,-1.018066406,-0.221679688,0.305175781,8.30078125,0.854492188,595000000,3
0.071289063,-1.017578125,0.316894531,-1.342773438,-1.220703125,-0.366210938,-0.078613281,-0.992675781,-0.229492188,1.892089844,3.784179688,-0.305175781,595000000,3
0.069824219,-1.017089844,0.317382813,-1.403808594,-1.037597656,-0.366210938,-0.007324219,-0.98046875,-0.191894531,0.793457031,-4.333496094,-0.305175781,595000000,3
0.068359375,-1.010742188,0.319335938,-1.647949219,-0.854492188,-0.305175781,-0.005859375,-0.998046875,-0.193847656,-0.48828125,-2.014160156,0.48828125,595000000,3
0.069824219,-1.016601563,0.317382813,-1.770019531,-1.220703125,-0.244140625,-0.061035156,-1.0078125,-0.23828125,-0.183105469,-2.502441406,0.061035156,595000000,3
0.0703125,-1.016113281,0.31640625,-1.953125,-1.525878906,-0.305175781,0.006347656,-1.014648438,-0.225097656,0.427246094,-6.164550781,-0.244140625,595000000,3
0.063476563,-1.016113281,0.31640625,-2.136230469,-1.342773438,-0.427246094,0.065917969,-1.000488281,-0.182617188,1.525878906,3.356933594,-0.183105469,595000000,3
0.067871094,-1.012695313,0.318359375,-2.319335938,-1.770019531,-0.427246094,-0.045410156,-1.003417969,-0.194335938,1.953125,13.671875,-0.305175781,595000000,3
0.070800781,-1.014648438,0.318847656,-2.624511719,-1.708984375,-0.427246094,-0.120117188,-0.997070313,-0.238769531,2.319335938,3.234863281,-0.793457031,595000000,3
0.063476563,-1.014160156,0.313476563,-2.746582031,-1.892089844,-0.366210938,-0.019042969,-0.9921875,-0.234863281,0.915527344,-12.39013672,-1.159667969,595000000,3
0.069335938,-1.016113281,0.313476563,-2.868652344,-2.44140625,-0.366210938,0.058105469,-1.004394531,-0.191894531,-0.366210938,-8.544921875,-0.9765625,595000000,3
0.072265625,-1.017578125,0.314941406,-3.173828125,-2.136230469,-0.427246094,-0.030761719,-1.006835938,-0.201171875,0.793457031,3.295898438,-0.915527344,595000000,3
0.068847656,-1.021972656,0.309570313,-3.479003906,-1.708984375,-0.549316406,-0.103515625,-0.994140625,-0.236816406,2.258300781,-0.244140625,-0.48828125,595000000,3
0.072265625,-1.017089844,0.310058594,-3.41796875,-1.708984375,-0.854492188,-0.000977,-0.990234375,-0.229492188,1.953125,-10.43701172,0.061035156,595000000,3
0.065429688,-1.017578125,0.313476563,-3.234863281,-1.46484375,-1.159667969,0.097167969,-0.986328125,-0.194335938,1.159667969,-1.098632813,-0.610351563,595000000,3
0.061523438,-1.019042969,0.307128906,-3.112792969,-2.868652344,-1.342773438,-0.024414063,-0.9921875,-0.206054688,0.9765625,15.68603516,-1.403808594,595000000,3
0.073730469,-1.020996094,0.30078125,-2.685546875,-3.967285156,-1.342773438,-0.135742188,-0.974121094,-0.254394531,1.708984375,8.7890625,-1.342773438,595000000,3
0.084472656,-1.025878906,0.30078125,-2.136230469,-3.112792969,-1.403808594,-0.036132813,-0.969726563,-0.248046875,0,-9.582519531,-0.610351563,595000000,3
0.078613281,-1.01953125,0.301757813,-2.014160156,-1.708984375,-1.647949219,0.055175781,-1.003417969,-0.199707031,-1.525878906,-9.155273438,-0.671386719,595000000,3
0.068847656,-1.016113281,0.303710938,-2.014160156,-1.403808594,-1.647949219,-0.016601563,-0.999023438,-0.212402344,-0.122070313,2.563476563,-0.915527344,595000000,3
0.076171875,-1.020019531,0.306152344,-1.831054688,-1.46484375,-1.647949219,-0.063476563,-0.986328125,-0.235839844,-0.122070313,2.868652344,-0.793457031,595000000,3
0.078125,-1.019042969,0.3046875,-1.770019531,-0.305175781,-1.708984375,0.013183594,-0.978515625,-0.215820313,-1.037597656,-0.854492188,-0.122070313,595000000,3
0.072265625,-1.015136719,0.305175781,-2.075195313,-0.48828125,-1.586914063,-0.002441406,-0.983398438,-0.205078125,-1.46484375,3.845214844,-0.061035156,595000000,3
0.077148438,-1.024902344,0.302246094,-2.258300781,-2.563476563,-1.342773438,-0.076660156,-0.99609375,-0.225585938,-1.037597656,1.953125,-0.610351563,595000000,3
0.083984375,-1.024902344,0.299804688,-2.197265625,-3.479003906,-1.342773438,-0.020507813,-0.974121094,-0.212890625,-0.793457031,-6.774902344,-0.48828125,595000000,3
0.084472656,-1.022460938,0.297851563,-2.014160156,-2.380371094,-1.403808594,0.053710938,-1,-0.182617188,-2.136230469,-4.516601563,0.427246094,595000000,3
0.074707031,-1.014648438,0.296386719,-1.892089844,-1.403808594,-1.281738281,0.000977,-1.020996094,-0.202148438,-1.281738281,5.859375,0.427246094,595000000,3
0.078125,-1.024902344,0.288085938,-1.098632813,-2.44140625,-0.9765625,-0.062988281,-0.981933594,-0.231445313,0.610351563,5.37109375,0,595000000,3
0.091796875,-1.029785156,0.296875,-0.244140625,-2.868652344,-1.220703125,-0.019042969,-0.973144531,-0.209960938,-0.549316406,-4.150390625,0.48828125,595000000,3
0.081542969,-1.015136719,0.305664063,0,-1.220703125,-1.342773438,0.034667969,-1.004882813,-0.188476563,-2.380371094,-6.713867188,0.244140625,595000000,3
0.076660156,-1.016113281,0.303710938,-0.122070313,-0.366210938,-1.220703125,-0.001953125,-1.015625,-0.198730469,-1.770019531,-2.258300781,-0.732421875,595000000,3
0.087890625,-1.018066406,0.3046875,-0.366210938,0.122070313,-0.915527344,-0.024414063,-1.009765625,-0.211425781,-0.427246094,-2.014160156,-0.549316406,595000000,3
0.082519531,-1.014648438,0.303222656,-0.48828125,1.037597656,-0.854492188,0.033203125,-1.000976563,-0.1953125,0.610351563,-1.647949219,0.305175781,595000000,3
0.079101563,-1.020019531,0.302734375,-0.549316406,0.366210938,-0.610351563,-0.001953125,-1.010253906,-0.210449219,0.671386719,4.089355469,0.061035156,595000000,3
0.087890625,-1.022460938,0.298339844,-0.549316406,-0.610351563,-0.427246094,-0.067871094,-1.015625,-0.239746094,0.427246094,1.647949219,-0.793457031,595000000,3
0.083984375,-1.021972656,0.301757813,-0.671386719,-0.183105469,-0.366210938,-0.00390625,-1.000488281,-0.230957031,-0.061035156,-5.859375,-0.610351563,595000000,3
0.078125,-1.018554688,0.30078125,-0.854492188,-0.061035156,-0.305175781,0.067382813,-1.004394531,-0.198242188,-1.098632813,0.366210938,0.122070313,595000000,3
0.078613281,-1.013671875,0.301269531,-1.037597656,-0.183105469,-0.122070313,-0.027832031,-1.005371094,-0.226074219,-0.427246094,11.04736328,0.305175781,596000000,3
0.079589844,-1.020507813,0.303710938,-1.403808594,-0.061035156,0.061035156,-0.109375,-0.991210938,-0.256347656,-0.305175781,2.075195313,-0.549316406,596000000,3
0.080078125,-1.019042969,0.306640625,-1.953125,0.244140625,0.122070313,-0.000488,-0.98828125,-0.219238281,-1.708984375,-11.96289063,-0.671386719,596000000,3
0.073730469,-1.018066406,0.306640625,-2.44140625,-0.48828125,0.183105469,0.080566406,-0.989746094,-0.174316406,-2.563476563,-5.920410156,0.183105469,596000000,3
0.080078125,-1.026367188,0.294921875,-2.502441406,-2.014160156,-0.061035156,-0.033203125,-1.012207031,-0.198730469,-2.563476563,5.187988281,0.305175781,596000000,3
0.086914063,-1.022460938,0.2890625,-2.136230469,-1.46484375,-0.183105469,-0.089355469,-1.000976563,-0.2421875,-0.732421875,-2.136230469,-0.671386719,596000000,3
0.078613281,-1.021972656,0.293945313,-1.770019531,-0.732421875,-0.183105469,0.049316406,-0.979980469,-0.200195313,0,-8.605957031,-0.244140625,596000000,3
0.083496094,-1.025878906,0.295898438,-1.342773438,-1.037597656,-0.305175781,0.08203125,-0.974609375,-0.171875,-0.244140625,5.432128906,0.427246094,596000000,3
0.091308594,-1.0234375,0.294433594,-1.037597656,0.244140625,-0.48828125,-0.068359375,-0.987792969,-0.207519531,-0.305175781,14.70947266,0.183105469,596000000,3
0.079101563,-1.018066406,0.296875,-1.159667969,1.46484375,-0.366210938,-0.102050781,-0.984375,-0.240234375,0.244140625,0.305175781,-0.854492188,596000000,3
0.072753906,-1.014648438,0.299804688,-1.586914063,0.061035156,-0.122070313,0.026367188,-0.984375,-0.204589844,-0.48828125,-11.53564453,-1.098632813,596000000,3
0.077148438,-1.016113281,0.303710938,-2.075195313,-1.220703125,-0.122070313,0.045410156,-0.998535156,-0.197753906,-0.549316406,-4.089355469,-0.793457031,596000000,3
0.083984375,-1.018554688,0.30078125,-2.563476563,-0.854492188,-0.122070313,-0.048828125,-1.000976563,-0.221679688,0.305175781,3.90625,-0.244140625,596000000,3
0.080566406,-1.023925781,0.296386719,-2.624511719,-0.549316406,-0.183105469,-0.032226563,-0.998535156,-0.216796875,0.793457031,-0.183105469,-0.183105469,596000000,3
0.077148438,-1.018066406,0.295898438,-3.051757813,-1.037597656,-0.305175781,0.02734375,-0.99609375,-0.197753906,1.159667969,0.671386719,-0.610351563,596000000,3
0.077636719,-1.013671875,0.301757813,-3.784179688,-1.770019531,-0.366210938,-0.02734375,-1.000976563,-0.219238281,1.342773438,6.408691406,-0.793457031,596000000,3
0.082519531,-1.018066406,0.301269531,-4.089355469,-2.258300781,-0.732421875,-0.0703125,-0.987304688,-0.232910156,1.403808594,1.46484375,-0.671386719,596000000,3
0.075683594,-1.020996094,0.296875,-4.760742188,-1.708984375,-0.915527344,-0.014648438,-0.993164063,-0.229980469,0.183105469,-6.958007813,-0.427246094,596000000,3
0.075195313,-1.020019531,0.298828125,-5.859375,-2.380371094,-1.281738281,0.074707031,-0.987792969,-0.19921875,0.610351563,-3.051757813,-1.342773438,596000000,3
0.077148438,-1.020507813,0.293945313,-6.042480469,-4.699707031,-1.708984375,0.007324219,-0.995117188,-0.196289063,1.586914063,14.03808594,-1.220703125,596000000,3
0.081542969,-1.019042969,0.291015625,-7.32421875,-5.920410156,-1.586914063,-0.107910156,-0.969238281,-0.243164063,2.9296875,15.68603516,-1.220703125,596000000,3
0.081542969,-1.016601563,0.28515625,-8.850097656,-5.798339844,-1.46484375,-0.073242188,-0.974609375,-0.224121094,0.305175781,0.244140625,-1.220703125,596000000,3
0.079101563,-1.033203125,0.276855469,-9.155273438,-5.981445313,-1.953125,0.013183594,-1.015136719,-0.187988281,-1.647949219,-7.751464844,-1.403808594,596000000,3
