Wearable-1,Ax,Ay,Az,Gx,Gy,Gz,Sensor time
192.168.43.70,-0.465820313,0.709960938,0.703125,-8.178710938,9.216308594,-4.577636719,2.04E+08
192.168.43.70,-0.495605469,0.709960938,0.716796875,-3.845214844,0.305175781,-1.159667969,2.04E+08
192.168.43.70,-0.5078125,0.682128906,0.697265625,-5.126953125,-7.202148438,2.746582031,2.04E+08
192.168.43.70,-0.474609375,0.687011719,0.666503906,-2.9296875,-10.86425781,1.281738281,2.04E+08
192.168.43.70,-0.479003906,0.709472656,0.658691406,-2.319335938,-7.141113281,0.854492188,2.04E+08
192.168.43.70,-0.489257813,0.703125,0.640625,-3.479003906,-4.638671875,1.037597656,2.04E+08
192.168.43.70,-0.489257813,0.723144531,0.653808594,-2.624511719,-5.432128906,0,2.04E+08
192.168.43.70,-0.493652344,0.719726563,0.655273438,-3.723144531,-4.516601563,-0.915527344,2.04E+08
192.168.43.70,-0.466308594,0.7109375,0.648925781,-3.601074219,-3.90625,-1.525878906,2.04E+08
192.168.43.70,-0.434082031,0.703125,0.686523438,-2.563476563,-0.671386719,-1.281738281,2.04E+08
192.168.43.70,-0.461914063,0.698242188,0.690429688,-1.708984375,3.540039063,-1.831054688,2.04E+08
192.168.43.70,-0.467773438,0.705566406,0.673828125,-0.48828125,1.708984375,-2.380371094,2.04E+08
192.168.43.70,-0.484863281,0.709960938,0.665527344,-0.549316406,0.549316406,-2.9296875,2.04E+08
192.168.43.70,-0.479980469,0.708496094,0.666015625,-0.793457031,-1.342773438,-2.807617188,2.04E+08
192.168.43.70,-0.4453125,0.704101563,0.691894531,-1.159667969,-1.708984375,-1.953125,2.04E+08
192.168.43.70,-0.466308594,0.708984375,0.678710938,-0.732421875,1.708984375,-1.647949219,2.04E+08
192.168.43.70,-0.5,0.711914063,0.653808594,-0.549316406,2.075195313,-1.647949219,2.04E+08
192.168.43.70,-0.466308594,0.7109375,0.670898438,-0.549316406,-0.305175781,-1.220703125,2.04E+08
192.168.43.70,-0.476074219,0.710449219,0.672851563,-0.915527344,2.136230469,-0.610351563,2.04E+08
192.168.43.70,-0.504394531,0.7109375,0.663574219,-1.281738281,2.868652344,-0.122070313,2.04E+08
192.168.43.70,-0.497070313,0.711914063,0.666015625,-1.708984375,0.48828125,0,2.04E+08
192.168.43.70,-0.46875,0.702636719,0.678222656,-2.014160156,-0.366210938,0.427246094,2.04E+08
192.168.43.70,-0.479980469,0.699707031,0.677734375,-2.563476563,0.610351563,0.427246094,2.04E+08
192.168.43.70,-0.486816406,0.701660156,0.663574219,-2.44140625,0.061035156,-0.061035156,2.04E+08
192.168.43.70,-0.477539063,0.702148438,0.670410156,-2.502441406,-0.122070313,-0.305175781,2.04E+08
192.168.43.70,-0.483886719,0.69140625,0.672363281,-3.234863281,0.48828125,-0.793457031,2.04E+08
192.168.43.70,-0.473632813,0.693847656,0.671875,-2.014160156,0.610351563,-1.281738281,2.04E+08
192.168.43.70,-0.493164063,0.701171875,0.669921875,-1.220703125,1.586914063,-1.037597656,2.04E+08
192.168.43.70,-0.514648438,0.702636719,0.665527344,-1.708984375,0.122070313,-0.854492188,2.04E+08
192.168.43.70,-0.486328125,0.700683594,0.670898438,-2.258300781,-2.258300781,-0.671386719,2.04E+08
192.168.43.70,-0.470214844,0.695800781,0.677734375,-1.953125,-0.732421875,-0.9765625,2.04E+08
192.168.43.70,-0.506347656,0.692871094,0.666992188,-2.136230469,0.854492188,-0.854492188,2.05E+08
192.168.43.70,-0.493164063,0.692382813,0.665039063,-2.319335938,-1.647949219,-0.671386719,2.05E+08
192.168.43.70,-0.480957031,0.690917969,0.670410156,-2.746582031,-1.403808594,-0.48828125,2.05E+08
192.168.43.70,-0.498535156,0.685546875,0.6640625,-2.868652344,0.183105469,-0.366210938,2.05E+08
192.168.43.70,-0.495605469,0.69140625,0.668945313,-2.380371094,-0.061035156,-0.671386719,2.05E+08
192.168.43.70,-0.501953125,0.688476563,0.666992188,-2.807617188,0.732421875,-0.549316406,2.05E+08
192.168.43.70,-0.5,0.682617188,0.666503906,-2.502441406,0.061035156,-0.671386719,2.05E+08
192.168.43.70,-0.479980469,0.684082031,0.676757813,-1.831054688,-0.793457031,-1.037597656,2.05E+08
192.168.43.70,-0.485839844,0.681640625,0.67578125,-1.647949219,0.9765625,-1.281738281,2.05E+08
192.168.43.70,-0.489257813,0.681640625,0.670898438,-0.854492188,1.708984375,-1.281738281,2.05E+08
192.168.43.70,-0.478515625,0.680175781,0.669433594,-0.427246094,2.075195313,-1.342773438,2.05E+08
192.168.43.70,-0.484375,0.677246094,0.66015625,-0.305175781,3.051757813,-1.831054688,2.05E+08
192.168.43.70,-0.492675781,0.68359375,0.659667969,-0.122070313,3.540039063,-2.9296875,2.05E+08
192.168.43.70,-0.489257813,0.677246094,0.671875,-0.366210938,4.39453125,-3.051757813,2.05E+08
192.168.43.70,-0.486816406,0.668457031,0.668457031,0.244140625,5.187988281,-3.845214844,2.05E+08
192.168.43.70,-0.492675781,0.673828125,0.661132813,1.037597656,5.432128906,-5.432128906,2.05E+08
192.168.43.70,-0.490234375,0.673828125,0.66796875,1.281738281,6.103515625,-6.34765625,2.05E+08
192.168.43.70,-0.489746094,0.674316406,0.668945313,2.136230469,7.385253906,-7.751464844,2.05E+08
192.168.43.70,-0.494140625,0.671386719,0.676757813,2.502441406,9.094238281,-8.911132813,2.05E+08
192.168.43.70,-0.505859375,0.670898438,0.671875,2.197265625,10.80322266,-10.37597656,2.05E+08
192.168.43.70,-0.517089844,0.674804688,0.637207031,1.342773438,9.521484375,-11.59667969,2.05E+08
192.168.43.70,-0.495117188,0.663574219,0.648925781,1.037597656,7.568359375,-12.57324219,2.05E+08
192.168.43.70,-0.514648438,0.641113281,0.672851563,0.793457031,9.094238281,-12.6953125,2.05E+08
192.168.43.70,-0.50390625,0.636230469,0.685058594,0.915527344,8.850097656,-13.24462891,2.05E+08
192.168.43.70,-0.477539063,0.615234375,0.685546875,2.258300781,11.71875,-16.11328125,2.05E+08
192.168.43.70,-0.484375,0.602539063,0.641601563,1.831054688,16.6015625,-12.57324219,2.05E+08
192.168.43.70,-0.497558594,0.583007813,0.596679688,1.892089844,16.96777344,-15.44189453,2.05E+08
192.168.43.70,-0.470703125,0.547363281,0.578125,0.549316406,20.87402344,-11.90185547,2.05E+08
192.168.43.70,-0.483398438,0.561035156,0.590820313,-0.122070313,27.16064453,-17.33398438,2.05E+08
192.168.43.70,-0.531738281,0.527832031,0.615234375,-8.728027344,33.44726563,-20.93505859,2.05E+08
192.168.43.70,-0.645507813,0.414550781,0.568359375,-18.98193359,31.73828125,-14.52636719,2.05E+08
192.168.43.70,-0.50390625,0.486328125,0.575195313,-6.774902344,5.004882813,-21.78955078,2.05E+08
192.168.43.70,-0.460449219,0.447265625,0.597167969,4.211425781,14.52636719,-48.828125,2.05E+08
192.168.43.70,-0.531738281,0.458007813,0.63671875,2.868652344,41.62597656,-23.25439453,2.05E+08
192.168.43.70,-0.641601563,0.526367188,0.625,20.14160156,55.72509766,-46.02050781,2.05E+08
192.168.43.70,-0.578125,0.517089844,0.601074219,23.01025391,70.12939453,-55.23681641,2.05E+08
192.168.43.70,-0.529296875,0.460449219,0.537109375,13.61083984,106.6894531,-56.39648438,2.05E+08
192.168.43.70,-0.756835938,0.403808594,0.371582031,25.14648438,112.6708984,-76.171875,2.05E+08
192.168.43.70,-0.71875,0.444335938,0.38671875,35.88867188,70.86181641,-84.65576172,2.05E+08
192.168.43.70,-0.506347656,0.459960938,0.408691406,26.00097656,52.24609375,-102.8442383,2.05E+08
192.168.43.70,-0.506347656,0.364257813,0.334960938,10.31494141,71.35009766,-121.7041016,2.05E+08
192.168.43.70,-0.511230469,0.298339844,0.317382813,12.08496094,103.0883789,-137.8173828,2.05E+08
192.168.43.70,-0.551269531,0.277832031,0.304199219,15.68603516,143.6157227,-151.9165039,2.05E+08
192.168.43.70,-0.70703125,0.226074219,0.214355469,13.06152344,175.5371094,-165.0390625,2.05E+08
192.168.43.70,-0.796875,0.211914063,0.113769531,5.737304688,170.5932617,-178.1005859,2.05E+08
192.168.43.70,-0.951171875,0.239746094,0.05078125,-12.81738281,132.8735352,-200.0732422,2.05E+08
192.168.43.70,-0.955566406,0.2109375,-9.77E-04,-39.12353516,55.96923828,-226.0131836,2.05E+08
192.168.43.70,-0.75,0.206054688,-0.01953125,-61.03515625,-7.995605469,-240.0512695,2.05E+08
192.168.43.70,-0.697753906,0.187011719,-9.77E-04,-85.57128906,-4.638671875,-249.2675781,2.05E+08
192.168.43.70,-0.734375,0.086914063,0.025390625,-110.1074219,41.50390625,-248.7792969,2.05E+08
192.168.43.70,-0.726074219,-0.046875,0.170898438,-110.4736328,46.63085938,-245.6665039,2.06E+08
192.168.43.70,-0.778320313,-0.141601563,0.264160156,-104.9804688,47.91259766,-247.0703125,2.06E+08
192.168.43.70,-1.108886719,-0.224609375,0.125,-111.2060547,56.21337891,-256.8969727,2.06E+08
192.168.43.70,-1.496582031,-0.45703125,0.004882813,-127.6855469,10.07080078,-261.2304688,2.06E+08
192.168.43.70,-1.1875,-0.6328125,0.169921875,-109.8022461,-81.48193359,-250.8544922,2.06E+08
192.168.43.70,-0.76953125,-0.590820313,0.368652344,-90.8203125,-95.45898438,-244.7509766,2.06E+08
192.168.43.70,-0.927734375,-0.676269531,0.280761719,-121.2768555,-13.54980469,-228.8208008,2.06E+08
192.168.43.70,-1.216308594,-0.982421875,4.88E-04,-145.5688477,28.13720703,-217.4072266,2.06E+08
192.168.43.70,-1.120117188,-1.139648438,0.002441406,-120.9716797,-17.02880859,-216.9189453,2.06E+08
192.168.43.70,-0.881347656,-1.204589844,0.170898438,-95.88623047,-48.52294922,-216.003418,2.06E+08
192.168.43.70,-0.748046875,-1.300292969,0.157714844,-86.05957031,-37.41455078,-205.6274414,2.06E+08
192.168.43.70,-0.739746094,-1.417480469,0.192382813,-74.64599609,-25.45166016,-200.2563477,2.06E+08
192.168.43.70,-0.729492188,-1.519042969,0.221191406,-55.72509766,-23.25439453,-191.8334961,2.06E+08
192.168.43.70,-0.6015625,-1.576171875,0.225097656,-25.390625,-31.49414063,-182.9223633,2.06E+08
192.168.43.70,-0.378417969,-1.583496094,0.313964844,7.019042969,-30.2734375,-165.9545898,2.06E+08
192.168.43.70,-0.472167969,-1.777832031,0.512207031,16.90673828,-12.02392578,-140.8691406,2.06E+08
192.168.43.70,-0.643066406,-1.993652344,0.551269531,32.04345703,-16.05224609,-117.6147461,2.06E+08
192.168.43.70,-0.457519531,-1.836914063,0.531738281,76.04980469,-47.18017578,-97.16796875,2.06E+08
192.168.43.70,-0.139648438,-1.624023438,0.553710938,111.5112305,-52.67333984,-70.98388672,2.06E+08
192.168.43.70,-0.055664063,-1.671875,0.560546875,126.8920898,-25.75683594,-44.43359375,2.06E+08
192.168.43.70,-0.157714844,-1.78515625,0.572265625,144.2260742,-3.784179688,-25.20751953,2.06E+08
192.168.43.70,-0.23828125,-1.790527344,0.597167969,166.5649414,1.647949219,-14.6484375,2.06E+08
192.168.43.70,-0.372558594,-1.779296875,0.55859375,182.0068359,-1.770019531,-17.02880859,2.06E+08
192.168.43.70,-0.361328125,-1.796386719,0.507324219,194.0917969,-17.51708984,-24.65820313,2.06E+08
192.168.43.70,-0.2578125,-1.809570313,0.497558594,205.2612305,-28.13720703,-31.92138672,2.06E+08
192.168.43.70,-0.234863281,-1.812988281,0.479492188,213.9892578,-24.29199219,-34.1796875,2.06E+08
192.168.43.70,-0.235351563,-1.766601563,0.443359375,222.5341797,-14.58740234,-28.62548828,2.06E+08
192.168.43.70,-0.237792969,-1.7109375,0.416503906,229.675293,-5.432128906,-21.97265625,2.06E+08
192.168.43.70,-0.21484375,-1.61328125,0.387207031,238.8305664,-3.41796875,-18.37158203,2.06E+08
192.168.43.70,-0.237304688,-1.551757813,0.380859375,244.6289063,-0.915527344,-17.21191406,2.06E+08
192.168.43.70,-0.287597656,-1.483886719,0.400390625,248.4130859,-1.220703125,-16.29638672,2.06E+08
192.168.43.70,-0.209472656,-1.373046875,0.424316406,249.8779297,-7.8125,-11.47460938,2.06E+08
192.168.43.70,-0.169433594,-1.256835938,0.395019531,246.9482422,-4.516601563,-5.37109375,2.06E+08
192.168.43.70,-0.236328125,-1.157226563,0.387695313,241.9433594,-0.9765625,-4.943847656,2.06E+08
192.168.43.70,-0.212890625,-1.066894531,0.438964844,241.8212891,-14.34326172,-10.43701172,2.06E+08
192.168.43.70,-0.13671875,-0.920898438,0.439941406,244.9951172,-23.68164063,-15.74707031,2.06E+08
192.168.43.70,-0.118164063,-0.793945313,0.449707031,237.6708984,-15.07568359,-13.73291016,2.06E+08
192.168.43.70,-0.158691406,-0.706542969,0.5,226.8676758,-9.155273438,-10.31494141,2.06E+08
192.168.43.70,-0.176269531,-0.624023438,0.482910156,221.862793,-16.66259766,-14.77050781,2.06E+08
192.168.43.70,-0.165527344,-0.520996094,0.444824219,219.3603516,-24.59716797,-19.71435547,2.06E+08
192.168.43.70,-0.130859375,-0.407714844,0.460449219,217.2851563,-27.46582031,-21.54541016,2.06E+08
192.168.43.70,-0.052734375,-0.273925781,0.522460938,214.9658203,-28.01513672,-18.18847656,2.06E+08
192.168.43.70,-0.056640625,-0.149902344,0.498046875,205.8105469,-16.41845703,-13.36669922,2.06E+08
192.168.43.70,-0.136230469,-0.065429688,0.521484375,192.8100586,-8.239746094,-10.92529297,2.06E+08
192.168.43.70,-0.150878906,0.007324219,0.538574219,183.8378906,-17.39501953,-10.62011719,2.06E+08
192.168.43.70,-0.066894531,0.0625,0.541992188,177.9174805,-30.82275391,-14.70947266,2.06E+08
192.168.43.70,-0.003417969,0.121582031,0.586914063,174.2553711,-29.66308594,-15.13671875,2.06E+08
192.168.43.70,0.046875,0.185058594,0.600097656,170.4711914,-15.38085938,-11.71875,2.06E+08
192.168.43.70,0.030273438,0.251953125,0.607421875,165.6494141,3.90625,-7.019042969,2.06E+08
192.168.43.70,-0.064453125,0.312988281,0.544433594,158.996582,13.91601563,-4.821777344,2.06E+08
192.168.43.70,-0.079101563,0.383300781,0.513183594,155.5786133,2.197265625,-6.103515625,2.07E+08
192.168.43.70,0.004882813,0.475097656,0.547851563,151.4892578,-9.399414063,-2.990722656,2.07E+08
192.168.43.70,0.021972656,0.551269531,0.519042969,143.4326172,-6.103515625,-4.089355469,2.07E+08
192.168.43.70,-0.021484375,0.580078125,0.524414063,132.5683594,-3.173828125,-10.19287109,2.07E+08
192.168.43.70,-0.01953125,0.604492188,0.532714844,123.2299805,-7.446289063,-11.41357422,2.07E+08
192.168.43.70,-0.014160156,0.619140625,0.555175781,116.9433594,-9.033203125,-13.48876953,2.07E+08
192.168.43.70,-0.018554688,0.649414063,0.570800781,115.7836914,-6.408691406,-13.12255859,2.07E+08
192.168.43.70,0.001464844,0.689941406,0.524414063,116.1499023,-3.784179688,-13.48876953,2.07E+08
192.168.43.70,0.00390625,0.69140625,0.470214844,113.7695313,3.90625,-14.22119141,2.07E+08
192.168.43.70,-0.032714844,0.719238281,0.461425781,114.7460938,12.6953125,-10.31494141,2.07E+08
192.168.43.70,-0.102050781,0.773925781,0.424316406,114.2578125,11.59667969,-10.31494141,2.07E+08
192.168.43.70,-0.104492188,0.813964844,0.406738281,107.9101563,-1.770019531,-13.73291016,2.07E+08
192.168.43.70,-0.021972656,0.825195313,0.356933594,99.54833984,-8.239746094,-14.89257813,2.07E+08
192.168.43.70,0.006347656,0.814453125,0.325683594,95.21484375,0.244140625,-15.07568359,2.07E+08
192.168.43.70,-0.055175781,0.81640625,0.306152344,94.7265625,12.81738281,-12.45117188,2.07E+08
192.168.43.70,-0.135253906,0.845703125,0.290039063,95.64208984,16.23535156,-11.23046875,2.07E+08
192.168.43.70,-0.125,0.893554688,0.26171875,94.54345703,10.07080078,-10.80322266,2.07E+08
192.168.43.70,-0.054199219,0.904785156,0.222167969,89.41650391,8.056640625,-9.521484375,2.07E+08
192.168.43.70,-0.050292969,0.893066406,0.192871094,87.58544922,15.99121094,-7.934570313,2.07E+08
192.168.43.70,-0.133789063,0.912109375,0.116699219,89.53857422,20.44677734,-8.30078125,2.07E+08
192.168.43.70,-0.115722656,0.951660156,0.084960938,86.73095703,7.873535156,-8.911132813,2.07E+08
192.168.43.70,-0.032226563,0.949707031,0.080566406,75.98876953,3.967285156,-6.225585938,2.07E+08
192.168.43.70,-0.071289063,0.923339844,0.045898438,70.92285156,14.34326172,-7.629394531,2.07E+08
192.168.43.70,-0.139648438,0.943359375,-0.018066406,76.11083984,14.16015625,-11.47460938,2.07E+08
192.168.43.70,-0.064453125,0.9296875,0.030273438,83.0078125,5.737304688,-10.7421875,2.07E+08
192.168.43.70,-0.110839844,0.983886719,0.002441406,91.61376953,13.97705078,-11.90185547,2.07E+08
192.168.43.70,-0.130859375,0.974121094,-0.048339844,91.00341797,10.68115234,-15.13671875,2.07E+08
192.168.43.70,-0.0703125,0.965820313,-0.060546875,96.31347656,4.333496094,-15.68603516,2.07E+08
192.168.43.70,-0.055664063,1.019042969,-0.072265625,101.9287109,14.6484375,-14.28222656,2.07E+08
192.168.43.70,-0.145019531,1.036621094,-0.12109375,89.90478516,27.34375,-21.24023438,2.07E+08
192.168.43.70,-0.219726563,1.059570313,-0.1328125,72.38769531,22.4609375,-23.19335938,2.07E+08
192.168.43.70,-0.219726563,1.037109375,-0.18359375,53.58886719,11.96289063,-18.12744141,2.07E+08
192.168.43.70,-0.185546875,1.024902344,-0.201171875,45.22705078,0.854492188,-11.35253906,2.07E+08
192.168.43.70,-0.150390625,1.009277344,-0.1796875,39.73388672,-6.164550781,-7.995605469,2.07E+08
192.168.43.70,-0.156738281,0.937988281,-0.172363281,33.56933594,-2.868652344,-7.873535156,2.07E+08
192.168.43.70,-0.145996094,0.951660156,-0.150878906,37.71972656,0.244140625,-7.568359375,2.07E+08
192.168.43.70,-0.111328125,0.985839844,-0.163085938,38.57421875,3.723144531,-6.774902344,2.07E+08
192.168.43.70,-0.1484375,0.937011719,-0.188964844,35.82763672,11.90185547,-6.286621094,2.07E+08
192.168.43.70,-0.202636719,0.918945313,-0.226074219,39.79492188,11.71875,-7.690429688,2.07E+08
192.168.43.70,-0.169921875,0.935546875,-0.212890625,42.78564453,6.591796875,-7.385253906,2.07E+08
192.168.43.70,-0.172851563,0.937988281,-0.1796875,43.39599609,11.41357422,-6.164550781,2.07E+08
192.168.43.70,-0.185058594,0.949707031,-0.187011719,42.29736328,15.01464844,-4.39453125,2.07E+08
192.168.43.70,-0.182617188,0.944824219,-0.198242188,39.12353516,11.23046875,-2.990722656,2.07E+08
192.168.43.70,-0.174316406,0.900878906,-0.203613281,37.96386719,9.27734375,-3.479003906,2.07E+08
192.168.43.70,-0.176269531,0.87109375,-0.216308594,41.56494141,11.65771484,-4.638671875,2.07E+08
192.168.43.70,-0.185546875,0.905761719,-0.231445313,46.08154297,14.6484375,-3.601074219,2.07E+08
192.168.43.70,-0.209960938,0.905273438,-0.262695313,43.64013672,13.85498047,-2.44140625,2.07E+08
192.168.43.70,-0.169433594,0.897949219,-0.299316406,41.93115234,8.30078125,0.061035156,2.07E+08
192.168.43.70,-0.132324219,0.904785156,-0.317382813,43.57910156,9.765625,1.953125,2.07E+08
192.168.43.70,-0.158691406,0.888183594,-0.363769531,43.45703125,13.97705078,1.892089844,2.08E+08
192.168.43.70,-0.178222656,0.870605469,-0.401367188,43.70117188,10.43701172,-0.366210938,2.08E+08
192.168.43.70,-0.13671875,0.888183594,-0.418945313,44.00634766,7.751464844,-0.122070313,2.08E+08
192.168.43.70,-0.125,0.898925781,-0.411621094,41.80908203,11.35253906,0.183105469,2.08E+08
192.168.43.70,-0.182617188,0.885253906,-0.418945313,36.49902344,13.73291016,0.549316406,2.08E+08
192.168.43.70,-0.181640625,0.887695313,-0.450683594,32.71484375,4.943847656,1.647949219,2.08E+08
192.168.43.70,-0.142089844,0.887695313,-0.452148438,31.67724609,-2.807617188,1.46484375,2.08E+08
192.168.43.70,-0.092285156,0.860839844,-0.453613281,31.12792969,-2.197265625,1.342773438,2.08E+08
192.168.43.70,-0.077148438,0.859863281,-0.472167969,34.05761719,7.32421875,0.244140625,2.08E+08
192.168.43.70,-0.141601563,0.847167969,-0.502441406,36.74316406,19.28710938,-2.502441406,2.08E+08
192.168.43.70,-0.173339844,0.848632813,-0.5,38.39111328,20.62988281,-4.455566406,2.08E+08
192.168.43.70,-0.157714844,0.875,-0.483398438,34.36279297,15.56396484,-2.380371094,2.08E+08
192.168.43.70,-0.151855469,0.850097656,-0.489257813,26.79443359,8.178710938,-1.953125,2.08E+08
192.168.43.70,-0.143554688,0.828613281,-0.499023438,25.93994141,1.403808594,-2.197265625,2.08E+08
192.168.43.70,-0.127929688,0.823730469,-0.497558594,28.74755859,0.610351563,-2.868652344,2.08E+08
192.168.43.70,-0.119140625,0.820800781,-0.505371094,30.70068359,5.187988281,-2.685546875,2.08E+08
192.168.43.70,-0.119628906,0.823242188,-0.508300781,29.90722656,9.460449219,-2.319335938,2.08E+08
192.168.43.70,-0.151855469,0.8125,-0.545898438,28.19824219,11.90185547,-3.112792969,2.08E+08
192.168.43.70,-0.180664063,0.814453125,-0.560546875,29.78515625,6.896972656,-5.004882813,2.08E+08
192.168.43.70,-0.160644531,0.822265625,-0.504882813,30.76171875,2.502441406,-4.272460938,2.08E+08
192.168.43.70,-0.139648438,0.803222656,-0.501953125,28.07617188,9.887695313,-0.366210938,2.08E+08
192.168.43.70,-0.141113281,0.795410156,-0.576171875,26.97753906,18.5546875,1.342773438,2.08E+08
192.168.43.70,-0.156738281,0.807617188,-0.609863281,26.55029297,17.88330078,-1.159667969,2.08E+08
192.168.43.70,-0.203613281,0.793457031,-0.603027344,22.82714844,11.65771484,-4.455566406,2.08E+08
192.168.43.70,-0.21875,0.765136719,-0.568847656,19.40917969,4.8828125,-0.549316406,2.08E+08
192.168.43.70,-0.165039063,0.76171875,-0.597167969,19.22607422,-0.793457031,4.943847656,2.08E+08
192.168.43.70,-0.118164063,0.758300781,-0.597167969,19.28710938,-1.831054688,6.652832031,2.08E+08
192.168.43.70,-0.107910156,0.778808594,-0.602050781,23.25439453,0.671386719,5.981445313,2.08E+08
192.168.43.70,-0.128417969,0.791015625,-0.578125,24.90234375,2.136230469,3.051757813,2.08E+08
192.168.43.70,-0.084472656,0.738769531,-0.562011719,21.05712891,5.432128906,6.408691406,2.08E+08
192.168.43.70,-0.024414063,0.722167969,-0.583007813,22.94921875,10.7421875,8.117675781,2.08E+08
192.168.43.70,-0.061523438,0.766113281,-0.660644531,29.11376953,12.39013672,2.868652344,2.08E+08
192.168.43.70,-0.120605469,0.782226563,-0.696777344,28.44238281,3.723144531,-2.197265625,2.08E+08
192.168.43.70,-0.110839844,0.723144531,-0.555664063,19.89746094,-1.037597656,1.953125,2.08E+08
192.168.43.70,-0.060546875,0.666503906,-0.541992188,18.73779297,2.624511719,8.056640625,2.08E+08
192.168.43.70,-0.053710938,0.743164063,-0.6328125,28.62548828,2.258300781,6.34765625,2.08E+08
192.168.43.70,-0.099121094,0.774902344,-0.678222656,27.64892578,0.9765625,2.44140625,2.08E+08
192.168.43.70,-0.102050781,0.680175781,-0.65625,20.08056641,1.953125,6.225585938,2.08E+08
192.168.43.70,-0.038085938,0.659667969,-0.639648438,24.04785156,9.887695313,9.643554688,2.08E+08
192.168.43.70,-0.013183594,0.701660156,-0.722167969,28.62548828,22.15576172,6.713867188,2.08E+08
192.168.43.70,-0.0390625,0.755371094,-0.803710938,26.73339844,23.19335938,0.671386719,2.08E+08
192.168.43.70,-0.094726563,0.739746094,-0.810546875,16.72363281,16.17431641,-2.624511719,2.08E+08
192.168.43.70,-0.1484375,0.625,-0.702148438,4.943847656,6.8359375,-0.549316406,2.08E+08
192.168.43.70,-0.1015625,0.611328125,-0.649414063,11.35253906,-2.075195313,7.507324219,2.08E+08
192.168.43.70,-0.010742188,0.733398438,-0.773925781,24.29199219,-8.7890625,11.41357422,2.08E+08
192.168.43.70,0.024414063,0.7734375,-0.84375,19.10400391,-6.774902344,9.399414063,2.08E+08
192.168.43.70,-0.016113281,0.684082031,-0.795410156,6.286621094,2.990722656,4.760742188,2.08E+08
192.168.43.70,-0.112792969,0.613769531,-0.700195313,0.549316406,16.54052734,-1.647949219,2.08E+08
192.168.43.70,-0.172363281,0.624023438,-0.708496094,4.333496094,18.73779297,-4.760742188,2.08E+08
192.168.43.70,-0.120117188,0.739257813,-0.730957031,9.643554688,8.239746094,4.272460938,2.08E+08
192.168.43.70,-0.065429688,0.729003906,-0.728027344,2.075195313,-5.798339844,10.68115234,2.09E+08
192.168.43.70,-0.060058594,0.641601563,-0.733886719,-0.9765625,-12.6953125,10.80322266,2.09E+08
192.168.43.70,-0.043945313,0.655761719,-0.747558594,7.385253906,-9.887695313,11.59667969,2.09E+08
192.168.43.70,-0.007324219,0.719238281,-0.764160156,8.7890625,1.098632813,13.671875,2.09E+08
192.168.43.70,-0.022949219,0.682617188,-0.713867188,-3.784179688,9.887695313,8.972167969,2.09E+08
192.168.43.70,-0.091796875,0.646484375,-0.682128906,-6.774902344,5.615234375,1.403808594,2.09E+08
192.168.43.70,-0.125488281,0.667480469,-0.7109375,-1.281738281,-5.798339844,0.854492188,2.09E+08
192.168.43.70,-0.037109375,0.712890625,-0.728027344,2.868652344,-13.79394531,11.29150391,2.09E+08
192.168.43.70,0.054199219,0.696777344,-0.729003906,-0.793457031,-9.155273438,17.94433594,2.09E+08
192.168.43.70,-0.019042969,0.640625,-0.731445313,-7.751464844,11.59667969,0.793457031,2.09E+08
192.168.43.70,-0.0703125,0.6875,-0.710449219,-9.704589844,5.004882813,-1.953125,2.09E+08
192.168.43.70,-0.064941406,0.706542969,-0.702148438,-10.55908203,-10.37597656,0.244140625,2.09E+08
192.168.43.70,-0.004882813,0.689453125,-0.681152344,-10.37597656,-20.44677734,5.493164063,2.09E+08
192.168.43.70,0.04296875,0.67578125,-0.698242188,-7.446289063,-13.12255859,7.385253906,2.09E+08
192.168.43.70,0.036132813,0.688476563,-0.745605469,-6.530761719,0.854492188,2.136230469,2.09E+08
192.168.43.70,-0.010253906,0.680664063,-0.708496094,-11.90185547,10.68115234,-2.563476563,2.09E+08
192.168.43.70,-0.052734375,0.722167969,-0.676757813,-11.47460938,8.483886719,-4.028320313,2.09E+08
192.168.43.70,-0.081054688,0.725097656,-0.666015625,-13.97705078,-1.831054688,-3.479003906,2.09E+08
192.168.43.70,-0.048339844,0.691894531,-0.688476563,-13.54980469,-12.75634766,0.061035156,2.09E+08
192.168.43.70,-0.003417969,0.711914063,-0.739257813,-8.850097656,-10.92529297,1.281738281,2.09E+08
192.168.43.70,-0.010742188,0.693359375,-0.7109375,-14.46533203,3.295898438,0.061035156,2.09E+08
192.168.43.70,-0.048339844,0.69921875,-0.655273438,-16.23535156,8.728027344,-1.220703125,2.09E+08
192.168.43.70,-0.080078125,0.759765625,-0.676269531,-13.30566406,-2.258300781,-2.624511719,2.09E+08
192.168.43.70,-0.081054688,0.714355469,-0.621582031,-20.5078125,-13.18359375,-1.281738281,2.09E+08
192.168.43.70,-0.049804688,0.687988281,-0.631835938,-15.625,-13.42773438,0.9765625,2.09E+08
192.168.43.70,-0.038574219,0.740722656,-0.697753906,-7.141113281,-4.760742188,0.244140625,2.09E+08
192.168.43.70,-0.040527344,0.72265625,-0.733886719,-9.27734375,5.981445313,1.342773438,2.09E+08
192.168.43.70,-0.042480469,0.68359375,-0.763183594,-13.48876953,13.671875,2.380371094,2.09E+08
192.168.43.70,-0.081054688,0.690917969,-0.735839844,-18.18847656,15.44189453,-0.671386719,2.09E+08
192.168.43.70,-0.099609375,0.738769531,-0.698242188,-21.17919922,6.408691406,-0.610351563,2.09E+08
192.168.43.70,-0.07421875,0.750976563,-0.657226563,-25.390625,-8.422851563,2.136230469,2.09E+08
192.168.43.70,-0.0390625,0.732421875,-0.616699219,-24.84130859,-16.90673828,4.455566406,2.09E+08
192.168.43.70,-0.002929688,0.725585938,-0.64453125,-19.95849609,-11.65771484,3.90625,2.09E+08
192.168.43.70,0.006835938,0.701660156,-0.655273438,-20.32470703,7.263183594,1.892089844,2.09E+08
192.168.43.70,-0.012695313,0.7421875,-0.693847656,-16.90673828,24.23095703,-0.732421875,2.09E+08
192.168.43.70,-0.039550781,0.803222656,-0.730957031,-19.10400391,27.03857422,-2.014160156,2.09E+08
192.168.43.70,-0.056152344,0.755371094,-0.6875,-30.94482422,13.48876953,-0.732421875,2.09E+08
192.168.43.70,-0.057617188,0.69140625,-0.628417969,-34.85107422,-5.432128906,-1.403808594,2.09E+08
192.168.43.70,-0.020996094,0.72265625,-0.608398438,-30.45654297,-13.42773438,0.061035156,2.09E+08
192.168.43.70,0.008789063,0.813964844,-0.595214844,-27.64892578,-5.554199219,1.220703125,2.09E+08
192.168.43.70,-0.017089844,0.774414063,-0.561523438,-34.72900391,5.859375,-0.549316406,2.09E+08
192.168.43.70,-0.029296875,0.736816406,-0.5390625,-33.93554688,6.958007813,-1.586914063,2.09E+08
192.168.43.70,-0.039550781,0.796875,-0.552734375,-26.97753906,5.126953125,-3.90625,2.09E+08
192.168.43.70,-0.056640625,0.790527344,-0.566894531,-29.96826172,7.32421875,-3.601074219,2.09E+08
192.168.43.70,-0.045898438,0.741699219,-0.51953125,-36.07177734,9.155273438,-0.48828125,2.09E+08
192.168.43.70,-0.041015625,0.731445313,-0.499511719,-36.62109375,7.385253906,0.48828125,2.09E+08
192.168.43.70,-0.047363281,0.817871094,-0.495117188,-33.99658203,-0.9765625,-1.281738281,2.09E+08
192.168.43.70,-0.0390625,0.859863281,-0.456542969,-37.29248047,-12.39013672,-2.685546875,2.09E+08
192.168.43.70,-0.017089844,0.802734375,-0.399414063,-42.48046875,-16.78466797,-0.427246094,2.09E+08
192.168.43.70,0.001464844,0.772949219,-0.377441406,-39.12353516,-14.09912109,0.793457031,2.10E+08
192.168.43.70,0.009277344,0.828125,-0.397949219,-30.94482422,-6.713867188,-0.732421875,2.10E+08
192.168.43.70,-0.004394531,0.864746094,-0.454101563,-29.11376953,3.540039063,-2.746582031,2.10E+08
192.168.43.70,-0.026855469,0.840332031,-0.445800781,-34.48486328,9.887695313,-4.089355469,2.10E+08
192.168.43.70,-0.051269531,0.821777344,-0.420410156,-36.49902344,9.826660156,-5.249023438,2.10E+08
192.168.43.70,-0.071289063,0.842773438,-0.40625,-36.49902344,3.845214844,-5.310058594,2.10E+08
192.168.43.70,-0.06640625,0.868652344,-0.370117188,-38.26904297,-4.516601563,-3.601074219,2.10E+08
192.168.43.70,-0.040039063,0.853515625,-0.327636719,-39.85595703,-9.399414063,-0.122070313,2.10E+08
192.168.43.70,-0.016113281,0.850585938,-0.317871094,-37.109375,-7.8125,1.403808594,2.10E+08
192.168.43.70,-0.002441406,0.876953125,-0.356445313,-31.31103516,-4.39453125,0.9765625,2.10E+08
192.168.43.70,0.012207031,0.916992188,-0.414550781,-28.80859375,1.831054688,0.122070313,2.10E+08
192.168.43.70,-9.77E-04,0.936035156,-0.414550781,-33.99658203,7.629394531,-2.807617188,2.10E+08
192.168.43.70,-0.045898438,0.862304688,-0.379882813,-42.17529297,6.469726563,-5.676269531,2.10E+08
192.168.43.70,-0.0625,0.848632813,-0.361816406,-41.68701172,-0.854492188,-5.187988281,2.10E+08
192.168.43.70,-0.053222656,0.899902344,-0.360351563,-38.45214844,-6.286621094,-2.563476563,2.10E+08
192.168.43.70,-0.02734375,0.925292969,-0.362792969,-39.18457031,-3.845214844,0.183105469,2.10E+08
192.168.43.70,-0.016601563,0.919433594,-0.337890625,-43.9453125,3.723144531,0.366210938,2.10E+08
192.168.43.70,-0.041992188,0.899902344,-0.266601563,-49.37744141,5.981445313,-2.319335938,2.10E+08
192.168.43.70,-0.0703125,0.900878906,-0.239746094,-49.74365234,-0.427246094,-4.272460938,2.10E+08
192.168.43.70,-0.072753906,0.904785156,-0.209472656,-50.17089844,-6.713867188,-3.662109375,2.10E+08
192.168.43.70,-0.054199219,0.87890625,-0.147949219,-50.84228516,-7.141113281,-1.159667969,2.10E+08
192.168.43.70,-0.036621094,0.915527344,-0.140625,-43.09082031,-2.075195313,0.854492188,2.10E+08
192.168.43.70,-0.034179688,0.955566406,-0.154296875,-40.58837891,6.225585938,0.671386719,2.10E+08
192.168.43.70,-0.0390625,0.906738281,-0.12109375,-46.20361328,11.16943359,-0.549316406,2.10E+08
192.168.43.70,-0.049804688,0.891113281,-0.119140625,-44.06738281,8.972167969,-2.624511719,2.10E+08
192.168.43.70,-0.053222656,0.954589844,-0.142578125,-39.73388672,5.126953125,-3.295898438,2.10E+08
192.168.43.70,-0.061523438,0.962890625,-0.110839844,-42.84667969,3.845214844,-2.685546875,2.10E+08
192.168.43.70,-0.046875,0.94921875,-0.09375,-43.45703125,2.563476563,-0.793457031,2.10E+08
192.168.43.70,-0.027832031,0.954101563,-0.090332031,-42.72460938,2.44140625,-1.647949219,2.10E+08
192.168.43.70,-0.040527344,0.938964844,-0.065429688,-45.04394531,5.065917969,-4.455566406,2.10E+08
192.168.43.70,-0.056152344,0.921875,-0.041992188,-45.95947266,7.385253906,-4.943847656,2.10E+08
192.168.43.70,-0.070800781,0.932128906,-0.039550781,-44.79980469,6.8359375,-4.699707031,2.10E+08
192.168.43.70,-0.060546875,0.961914063,-0.025390625,-43.76220703,0.732421875,-3.173828125,2.10E+08
192.168.43.70,-0.042480469,0.98046875,-0.007324219,-43.09082031,-4.333496094,-2.258300781,2.10E+08
192.168.43.70,-0.017578125,0.974121094,-0.013671875,-42.11425781,-4.455566406,-2.075195313,2.10E+08
192.168.43.70,-0.008789063,0.952636719,-0.001953125,-42.84667969,2.075195313,-3.540039063,2.10E+08
192.168.43.70,-0.04296875,0.941894531,-0.001464844,-43.33496094,10.92529297,-7.507324219,2.10E+08
192.168.43.70,-0.08203125,0.961914063,-0.006835938,-43.33496094,11.71875,-9.582519531,2.10E+08
192.168.43.70,-0.108886719,0.984863281,0.007324219,-44.86083984,4.455566406,-9.155273438,2.10E+08
192.168.43.70,-0.124023438,0.96875,0.059570313,-49.19433594,-3.295898438,-6.8359375,2.10E+08
192.168.43.70,-0.124511719,0.94921875,0.1015625,-50.59814453,-8.7890625,-5.065917969,2.10E+08
192.168.43.70,-0.124511719,0.942871094,0.147460938,-50.84228516,-11.71875,-4.455566406,2.10E+08
192.168.43.70,-0.117675781,0.936523438,0.196289063,-49.49951172,-10.31494141,-2.807617188,2.10E+08
192.168.43.70,-0.102050781,0.958007813,0.181152344,-43.82324219,-4.089355469,-0.183105469,2.10E+08
192.168.43.70,-0.080566406,0.98828125,0.174804688,-40.28320313,0.183105469,1.831054688,2.10E+08
192.168.43.70,-0.074707031,0.984863281,0.169433594,-40.0390625,3.112792969,2.014160156,2.10E+08
192.168.43.70,-0.072753906,0.968261719,0.168457031,-40.34423828,2.136230469,1.037597656,2.10E+08
192.168.43.70,-0.062988281,0.970214844,0.17578125,-40.83251953,0.305175781,0.244140625,2.10E+08
192.168.43.70,-0.068359375,0.952636719,0.192871094,-42.66357422,1.281738281,-1.525878906,2.10E+08
192.168.43.70,-0.070800781,0.943847656,0.192382813,-42.23632813,4.272460938,-1.46484375,2.10E+08
192.168.43.70,-0.075195313,0.951660156,0.183105469,-41.93115234,5.737304688,-1.098632813,2.11E+08
192.168.43.70,-0.08984375,0.938964844,0.21484375,-45.10498047,2.746582031,-1.46484375,2.11E+08
192.168.43.70,-0.084472656,0.940429688,0.223632813,-45.10498047,-1.831054688,-0.9765625,2.11E+08
192.168.43.70,-0.060546875,0.946777344,0.223144531,-46.20361328,-2.502441406,0.244140625,2.11E+08
192.168.43.70,-0.053222656,0.925292969,0.250976563,-49.25537109,-2.44140625,0.122070313,2.11E+08
192.168.43.70,-0.055664063,0.935058594,0.2734375,-48.95019531,-5.249023438,-1.159667969,2.11E+08
192.168.43.70,-0.045898438,0.940917969,0.291503906,-49.19433594,-8.483886719,-2.563476563,2.11E+08
192.168.43.70,-0.033203125,0.932617188,0.327148438,-50.96435547,-6.774902344,-4.089355469,2.11E+08
192.168.43.70,-0.055664063,0.922363281,0.374511719,-52.79541016,-1.281738281,-6.34765625,2.11E+08
192.168.43.70,-0.099121094,0.903320313,0.400878906,-52.734375,-0.549316406,-8.422851563,2.11E+08
192.168.43.70,-0.10546875,0.900878906,0.414550781,-49.98779297,-4.333496094,-7.690429688,2.11E+08
192.168.43.70,-0.101074219,0.908203125,0.437988281,-48.76708984,-5.493164063,-6.286621094,2.11E+08
192.168.43.70,-0.111816406,0.875,0.458007813,-48.88916016,-4.211425781,-6.042480469,2.11E+08
192.168.43.70,-0.092285156,0.873535156,0.459472656,-47.18017578,-1.831054688,-4.089355469,2.11E+08
192.168.43.70,-0.086425781,0.885742188,0.452636719,-46.93603516,3.356933594,-3.662109375,2.11E+08
192.168.43.70,-0.10546875,0.890625,0.463378906,-47.60742188,3.845214844,-4.211425781,2.11E+08
192.168.43.70,-0.096191406,0.891601563,0.475097656,-47.72949219,-0.48828125,-3.295898438,2.11E+08
192.168.43.70,-0.082519531,0.877441406,0.500488281,-49.25537109,-3.967285156,-3.479003906,2.11E+08
192.168.43.70,-0.078125,0.859375,0.520507813,-50.23193359,-4.516601563,-4.577636719,2.11E+08
192.168.43.70,-0.078125,0.867675781,0.533691406,-50.35400391,-1.46484375,-5.004882813,2.11E+08
192.168.43.70,-0.095214844,0.835449219,0.548828125,-51.02539063,0.793457031,-6.164550781,2.11E+08
192.168.43.70,-0.09375,0.812988281,0.565429688,-49.56054688,2.502441406,-6.103515625,2.11E+08
192.168.43.70,-0.104980469,0.806640625,0.571289063,-48.64501953,5.920410156,-6.103515625,2.11E+08
192.168.43.70,-0.124023438,0.819824219,0.591308594,-48.70605469,5.310058594,-6.408691406,2.11E+08
192.168.43.70,-0.119628906,0.823730469,0.60546875,-49.74365234,0.854492188,-5.554199219,2.11E+08
192.168.43.70,-0.112792969,0.809082031,0.623535156,-51.51367188,-3.112792969,-4.821777344,2.11E+08
192.168.43.70,-0.1015625,0.788574219,0.636230469,-51.94091797,-5.432128906,-4.577636719,2.11E+08
192.168.43.70,-0.102539063,0.781738281,0.669433594,-51.51367188,-4.333496094,-4.638671875,2.11E+08
192.168.43.70,-0.112304688,0.776855469,0.688964844,-51.02539063,-2.136230469,-5.187988281,2.11E+08
192.168.43.70,-0.115234375,0.768066406,0.691894531,-50.53710938,-0.854492188,-5.493164063,2.11E+08
192.168.43.70,-0.121582031,0.754394531,0.695800781,-50.29296875,0.549316406,-5.37109375,2.11E+08
192.168.43.70,-0.141601563,0.734375,0.720703125,-50.78125,-0.061035156,-5.432128906,2.11E+08
192.168.43.70,-0.140625,0.736328125,0.7265625,-50.10986328,-3.723144531,-5.37109375,2.11E+08
192.168.43.70,-0.123535156,0.729980469,0.73046875,-50.23193359,-6.34765625,-4.455566406,2.11E+08
192.168.43.70,-0.119628906,0.701171875,0.738769531,-50.53710938,-5.37109375,-3.601074219,2.11E+08
192.168.43.70,-0.118652344,0.68359375,0.739257813,-49.98779297,-2.990722656,-3.356933594,2.11E+08
192.168.43.70,-0.104492188,0.679199219,0.759277344,-50.53710938,-2.075195313,-3.051757813,2.11E+08
192.168.43.70,-0.107421875,0.671875,0.748046875,-50.53710938,-1.098632813,-3.90625,2.11E+08
192.168.43.70,-0.103027344,0.670898438,0.743164063,-51.39160156,-1.159667969,-4.211425781,2.11E+08
192.168.43.70,-0.115234375,0.635742188,0.778320313,-54.07714844,-1.892089844,-4.8828125,2.11E+08
192.168.43.70,-0.107421875,0.605957031,0.782714844,-54.56542969,-2.9296875,-4.577636719,2.11E+08
192.168.43.70,-0.100097656,0.594238281,0.797851563,-54.93164063,-1.46484375,-3.967285156,2.11E+08
192.168.43.70,-0.103027344,0.579589844,0.80859375,-55.11474609,0.244140625,-4.150390625,2.11E+08
192.168.43.70,-0.105957031,0.576660156,0.818359375,-55.60302734,0.244140625,-4.272460938,2.11E+08
192.168.43.70,-0.130371094,0.541503906,0.837890625,-58.47167969,-1.281738281,-5.004882813,2.11E+08
192.168.43.70,-0.115722656,0.537109375,0.857910156,-59.20410156,-3.967285156,-4.638671875,2.11E+08
192.168.43.70,-0.112792969,0.540527344,0.89453125,-59.99755859,-5.065917969,-4.455566406,2.11E+08
192.168.43.70,-0.134765625,0.5,0.91015625,-61.5234375,-6.530761719,-4.577636719,2.11E+08
192.168.43.70,-0.133300781,0.467773438,0.915039063,-62.01171875,-8.117675781,-4.150390625,2.11E+08
192.168.43.70,-0.134277344,0.453613281,0.945800781,-62.19482422,-7.32421875,-4.333496094,2.11E+08
192.168.43.70,-0.134765625,0.438476563,0.947265625,-61.70654297,-4.455566406,-3.845214844,2.12E+08
192.168.43.70,-0.137695313,0.410644531,0.969726563,-62.31689453,-1.342773438,-2.502441406,2.12E+08
192.168.43.70,-0.132324219,0.400878906,0.98046875,-61.88964844,0.671386719,-1.586914063,2.12E+08
192.168.43.70,-0.131347656,0.389648438,0.983398438,-61.88964844,0.183105469,-1.46484375,2.12E+08
192.168.43.70,-0.1171875,0.356445313,0.979003906,-63.17138672,-2.319335938,-0.427246094,2.12E+08
192.168.43.70,-0.110839844,0.336914063,1.017089844,-62.80517578,-3.967285156,-0.610351563,2.12E+08
192.168.43.70,-0.09765625,0.336914063,1.036132813,-61.58447266,-4.089355469,-0.549316406,2.12E+08
192.168.43.70,-0.095214844,0.323730469,1.029296875,-61.64550781,-0.732421875,0.183105469,2.12E+08
192.168.43.70,-0.107910156,0.302734375,1.034179688,-62.43896484,2.136230469,-0.305175781,2.12E+08
192.168.43.70,-0.108886719,0.276855469,1.064941406,-63.59863281,-0.610351563,-1.892089844,2.12E+08
192.168.43.70,-0.122558594,0.25390625,1.108886719,-64.08691406,-4.211425781,-3.479003906,2.12E+08
192.168.43.70,-0.131347656,0.236816406,1.119140625,-63.35449219,-4.699707031,-4.028320313,2.12E+08
192.168.43.70,-0.122070313,0.225585938,1.114746094,-62.19482422,-1.403808594,-2.624511719,2.12E+08
192.168.43.70,-0.135253906,0.213378906,1.150878906,-60.30273438,-0.610351563,-1.831054688,2.12E+08
192.168.43.70,-0.134277344,0.155761719,1.141113281,-59.26513672,-3.784179688,-0.610351563,2.12E+08
192.168.43.70,-0.108398438,0.1328125,1.112304688,-57.55615234,0.549316406,0.915527344,2.12E+08
192.168.43.70,-0.11328125,0.127929688,1.122558594,-54.93164063,5.249023438,1.953125,2.12E+08
192.168.43.70,-0.137207031,0.119628906,1.129882813,-53.89404297,3.051757813,1.342773438,2.12E+08
192.168.43.70,-0.125,0.120117188,1.10546875,-53.58886719,-3.295898438,0.732421875,2.12E+08
192.168.43.70,-0.114746094,0.109375,1.117675781,-54.44335938,-5.737304688,1.403808594,2.12E+08
192.168.43.70,-0.109863281,0.076171875,1.100097656,-54.93164063,-3.356933594,1.647949219,2.12E+08
192.168.43.70,-0.099121094,0.061523438,1.111328125,-53.52783203,0,1.892089844,2.12E+08
192.168.43.70,-0.110839844,0.041503906,1.1171875,-53.40576172,3.295898438,1.770019531,2.12E+08
192.168.43.70,-0.117675781,0.02734375,1.103515625,-52.49023438,2.685546875,0.854492188,2.12E+08
192.168.43.70,-0.103027344,0.016113281,1.07421875,-52.49023438,1.892089844,0.793457031,2.12E+08
192.168.43.70,-0.176269531,-0.584960938,0.933105469,-54.6875,7.202148438,-4.638671875,2.13E+08
192.168.43.70,-0.15625,-0.600585938,0.912597656,-55.23681641,1.037597656,-5.004882813,2.13E+08
192.168.43.70,-0.155273438,-0.62109375,0.89453125,-54.13818359,3.295898438,-3.41796875,2.13E+08
192.168.43.70,-0.157226563,-0.657714844,0.876464844,-54.44335938,9.521484375,-1.892089844,2.13E+08
192.168.43.70,-0.164550781,-0.649414063,0.87890625,-53.77197266,11.77978516,-2.319335938,2.13E+08
192.168.43.70,-0.170898438,-0.620117188,0.875,-53.89404297,9.155273438,-4.028320313,2.13E+08
192.168.43.70,-0.171875,-0.640625,0.882324219,-55.48095703,3.90625,-3.784179688,2.13E+08
192.168.43.70,-0.166015625,-0.692871094,0.866210938,-55.96923828,-1.159667969,-3.234863281,2.13E+08
192.168.43.70,-0.147460938,-0.729492188,0.840332031,-55.48095703,-1.159667969,-2.319335938,2.13E+08
192.168.43.70,-0.157714844,-0.709960938,0.849609375,-54.50439453,0.9765625,-3.479003906,2.13E+08
192.168.43.70,-0.157226563,-0.703613281,0.854003906,-54.44335938,2.014160156,-5.249023438,2.13E+08
192.168.43.70,-0.163574219,-0.743652344,0.842773438,-54.99267578,5.798339844,-4.8828125,2.13E+08
192.168.43.70,-0.174316406,-0.7734375,0.810058594,-52.734375,8.605957031,-4.211425781,2.13E+08
192.168.43.70,-0.179199219,-0.788574219,0.793457031,-50.35400391,9.27734375,-2.807617188,2.13E+08
192.168.43.70,-0.172363281,-0.773925781,0.770996094,-48.64501953,8.422851563,-2.990722656,2.13E+08
192.168.43.70,-0.161132813,-0.760742188,0.7421875,-48.27880859,9.643554688,-3.967285156,2.13E+08
192.168.43.70,-0.158691406,-0.790039063,0.711425781,-50.65917969,13.671875,-3.540039063,2.13E+08
192.168.43.70,-0.167480469,-0.8203125,0.679199219,-51.45263672,14.83154297,-3.662109375,2.13E+08
192.168.43.70,-0.167480469,-0.833496094,0.655761719,-50.65917969,12.87841797,-4.39453125,2.13E+08
192.168.43.70,-0.170898438,-0.822753906,0.645507813,-48.828125,8.850097656,-5.554199219,2.13E+08
192.168.43.70,-0.151855469,-0.835449219,0.636230469,-49.49951172,5.981445313,-5.432128906,2.13E+08
192.168.43.70,-0.163085938,-0.832519531,0.626464844,-52.85644531,7.202148438,-6.8359375,2.13E+08
192.168.43.70,-0.152832031,-0.848632813,0.606445313,-54.38232422,7.32421875,-8.30078125,2.13E+08
192.168.43.70,-0.137207031,-0.865722656,0.596679688,-53.03955078,10.25390625,-7.32421875,2.13E+08
192.168.43.70,-0.170410156,-0.858398438,0.625,-50.90332031,13.06152344,-8.30078125,2.13E+08
192.168.43.70,-0.186035156,-0.888183594,0.618164063,-52.36816406,11.29150391,-9.643554688,2.13E+08
192.168.43.70,-0.182617188,-0.897949219,0.593261719,-51.87988281,8.483886719,-9.887695313,2.13E+08
192.168.43.70,-0.182128906,-0.909667969,0.558105469,-50.53710938,10.86425781,-8.7890625,2.13E+08
192.168.43.70,-0.187011719,-0.918945313,0.540527344,-48.828125,14.83154297,-7.934570313,2.13E+08
192.168.43.70,-0.201171875,-0.940917969,0.541992188,-49.74365234,16.54052734,-7.751464844,2.13E+08
192.168.43.70,-0.20703125,-0.955566406,0.530273438,-51.08642578,13.97705078,-9.094238281,2.13E+08
192.168.43.70,-0.208007813,-0.966796875,0.51953125,-50.53710938,9.887695313,-9.155273438,2.13E+08
192.168.43.70,-0.1953125,-0.935058594,0.513671875,-47.11914063,7.995605469,-8.056640625,2.13E+08
192.168.43.70,-0.166015625,-0.917480469,0.495605469,-44.73876953,9.460449219,-6.591796875,2.13E+08
192.168.43.70,-0.149902344,-0.952148438,0.468261719,-44.86083984,14.58740234,-4.943847656,2.13E+08
192.168.43.70,-0.168457031,-1.025390625,0.4453125,-48.40087891,16.96777344,-4.943847656,2.13E+08
192.168.43.70,-0.186035156,-1.014160156,0.445800781,-48.27880859,6.896972656,-8.7890625,2.13E+08
192.168.43.70,-0.143066406,-0.978515625,0.453613281,-47.48535156,-1.831054688,-12.02392578,2.13E+08
192.168.43.70,-0.132324219,-0.958984375,0.440917969,-47.36328125,4.8828125,-10.92529297,2.13E+08
192.168.43.70,-0.146484375,-0.966308594,0.408203125,-46.69189453,12.26806641,-9.948730469,2.13E+08
192.168.43.70,-0.135742188,-0.968261719,0.392089844,-43.82324219,11.10839844,-9.643554688,2.13E+08
192.168.43.70,-0.119628906,-0.984863281,0.339355469,-44.25048828,12.57324219,-9.765625,2.13E+08
192.168.43.70,-0.1171875,-1.001953125,0.304199219,-43.82324219,15.44189453,-9.582519531,2.13E+08
192.168.43.70,-0.1328125,-0.988769531,0.302246094,-43.57910156,11.04736328,-10.55908203,2.14E+08
192.168.43.70,-0.147949219,-0.989746094,0.299804688,-46.56982422,0.183105469,-13.42773438,2.14E+08
192.168.43.70,-0.140136719,-1.004394531,0.309082031,-49.07226563,-9.521484375,-15.01464844,2.14E+08
192.168.43.70,-0.126464844,-0.997558594,0.302734375,-48.95019531,-8.728027344,-15.19775391,2.14E+08
192.168.43.70,-0.126953125,-0.975097656,0.291015625,-47.48535156,-0.366210938,-14.03808594,2.14E+08
192.168.43.70,-0.138183594,-0.968261719,0.30859375,-46.38671875,5.126953125,-12.14599609,2.14E+08
192.168.43.70,-0.131835938,-1.01953125,0.278808594,-46.99707031,1.037597656,-10.55908203,2.14E+08
192.168.43.70,-0.118164063,-1.02734375,0.224609375,-45.04394531,-12.39013672,-11.59667969,2.14E+08
192.168.43.70,-0.106445313,-0.98828125,0.182617188,-44.98291016,-24.04785156,-15.74707031,2.14E+08
192.168.43.70,-0.08984375,-1.021484375,0.147949219,-49.49951172,-20.08056641,-16.41845703,2.14E+08
192.168.43.70,-0.128417969,-1.065917969,0.159667969,-51.33056641,-10.00976563,-14.16015625,2.14E+08
192.168.43.70,-0.159667969,-1.073242188,0.13671875,-50.41503906,-6.286621094,-13.73291016,2.14E+08
192.168.43.70,-0.14453125,-1.096679688,0.084472656,-50.29296875,-6.225585938,-12.20703125,2.14E+08
192.168.43.70,-0.137207031,-1.131347656,0.027832031,-51.81884766,-9.338378906,-11.16943359,2.14E+08
192.168.43.70,-0.111328125,-1.154296875,0.009765625,-51.08642578,-16.11328125,-11.59667969,2.14E+08
192.168.43.70,-0.075195313,-1.103515625,0.058105469,-48.76708984,-13.30566406,-11.84082031,2.14E+08
192.168.43.70,-0.080078125,-1.062011719,0.137207031,-52.30712891,5.004882813,-8.911132813,2.14E+08
192.168.43.70,-0.094238281,-1.116699219,0.1015625,-58.10546875,17.15087891,-6.408691406,2.14E+08
192.168.43.70,-0.056152344,-1.171386719,0.058105469,-53.22265625,10.13183594,-7.446289063,2.14E+08
192.168.43.70,-0.071289063,-1.123535156,0.064453125,-45.22705078,2.685546875,-12.57324219,2.14E+08
192.168.43.70,-0.070800781,-1.055175781,0.131835938,-44.37255859,2.319335938,-16.90673828,2.14E+08
192.168.43.70,-0.145507813,-1.034179688,0.168457031,-53.58886719,12.57324219,-16.96777344,2.14E+08
192.168.43.70,-0.178222656,-1.125976563,0.111816406,-59.69238281,8.422851563,-15.68603516,2.14E+08
192.168.43.70,-0.172851563,-1.107421875,0.119628906,-51.26953125,-9.094238281,-12.57324219,2.14E+08
192.168.43.70,-0.171386719,-1,0.104980469,-42.90771484,-11.59667969,-11.96289063,2.14E+08
192.168.43.70,-0.11328125,-0.956542969,0.12890625,-41.07666016,-6.286621094,-7.690429688,2.14E+08
192.168.43.70,-0.065429688,-0.972167969,0.112304688,-49.92675781,-5.187988281,-8.056640625,2.14E+08
192.168.43.70,-0.0078125,-1.015625,0.165527344,-52.36816406,-13.18359375,-12.39013672,2.14E+08
192.168.43.70,-0.007324219,-0.99609375,0.208496094,-39.67285156,-4.699707031,-12.20703125,2.14E+08
192.168.43.70,-0.036621094,-1.002929688,0.209472656,-26.67236328,10.92529297,-8.850097656,2.14E+08
192.168.43.70,-0.050292969,-0.991699219,0.119140625,-16.11328125,19.83642578,-7.263183594,2.14E+08
192.168.43.70,-0.053710938,-0.907226563,-0.171386719,-15.80810547,15.13671875,-7.934570313,2.14E+08
192.168.43.70,0.071289063,-0.86328125,-0.30859375,-22.39990234,-9.094238281,-7.873535156,2.14E+08
192.168.43.70,0.171875,-0.955078125,-0.260253906,-33.87451172,-7.568359375,-5.126953125,2.14E+08
192.168.43.70,0.137207031,-1.09375,-0.191894531,-28.01513672,5.493164063,-8.911132813,2.14E+08
192.168.43.70,-0.024902344,-0.986816406,-0.180175781,-12.63427734,6.34765625,-10.98632813,2.14E+08
192.168.43.70,-0.053710938,-0.928710938,-0.196289063,-11.10839844,-3.234863281,-13.73291016,2.14E+08
192.168.43.70,0.011230469,-0.938476563,-0.198730469,-15.50292969,-6.591796875,-12.26806641,2.14E+08
192.168.43.70,0.069824219,-0.914550781,-0.18359375,-15.07568359,-12.51220703,-8.544921875,2.14E+08
192.168.43.70,0.081054688,-0.883789063,-0.219238281,-16.17431641,-9.155273438,-8.544921875,2.14E+08
192.168.43.70,0.042480469,-0.920410156,-0.311035156,-17.88330078,-2.807617188,-12.6953125,2.14E+08
192.168.43.70,0.065917969,-0.966308594,-0.317871094,-11.10839844,-6.225585938,-12.93945313,2.14E+08
192.168.43.70,0.101074219,-0.921875,-0.239257813,-0.671386719,-10.92529297,-11.84082031,2.14E+08
192.168.43.70,0.048339844,-0.807128906,-0.219726563,0.671386719,-6.286621094,-10.19287109,2.14E+08
192.168.43.70,-0.057128906,-0.822753906,-0.231933594,-8.7890625,-0.549316406,-8.422851563,2.14E+08
192.168.43.70,0.040039063,-0.883789063,-0.306152344,-10.37597656,-5.493164063,-5.737304688,2.14E+08
192.168.43.70,0.168457031,-0.91796875,-0.321289063,-4.211425781,-4.028320313,-5.249023438,2.14E+08
192.168.43.70,0.060058594,-0.994140625,-0.293457031,-1.46484375,15.19775391,-3.601074219,2.14E+08
192.168.43.70,-0.109863281,-1.008300781,-0.229980469,3.356933594,20.81298828,-1.586914063,2.14E+08
192.168.43.70,-0.043945313,-0.937988281,-0.162597656,9.460449219,5.065917969,0.183105469,2.14E+08
192.168.43.70,0.100585938,-0.928222656,-0.104980469,5.249023438,3.662109375,1.953125,2.15E+08
192.168.43.70,0.0703125,-0.951171875,-0.182128906,-4.577636719,16.96777344,0.427246094,2.15E+08
192.168.43.70,0.030761719,-0.979492188,-0.251953125,-6.164550781,8.972167969,-4.150390625,2.15E+08
192.168.43.70,0.056640625,-0.9296875,-0.230957031,-0.9765625,-5.249023438,-5.249023438,2.15E+08
192.168.43.70,0.057617188,-0.919433594,-0.198730469,-2.319335938,-5.554199219,-4.8828125,2.15E+08
192.168.43.70,0.074707031,-0.975097656,-0.197753906,-3.295898438,-4.760742188,-7.019042969,2.15E+08
192.168.43.70,0.113769531,-0.966308594,-0.222167969,-0.793457031,-2.380371094,-6.408691406,2.15E+08
192.168.43.70,0.095214844,-0.930175781,-0.224121094,0.549316406,3.662109375,-4.577636719,2.15E+08
192.168.43.70,0.05078125,-0.921386719,-0.223144531,0.366210938,2.746582031,-4.455566406,2.15E+08
192.168.43.70,0.033203125,-0.908691406,-0.189453125,-0.305175781,-1.770019531,-5.249023438,2.15E+08
192.168.43.70,0.038085938,-0.888671875,-0.201660156,-2.9296875,-5.737304688,-7.385253906,2.15E+08
192.168.43.70,0.062988281,-0.916015625,-0.253417969,-6.042480469,-7.934570313,-9.094238281,2.15E+08
192.168.43.70,0.087402344,-0.924804688,-0.274414063,-4.272460938,-5.676269531,-7.32421875,2.15E+08
192.168.43.70,0.044921875,-0.899902344,-0.251953125,-1.953125,-0.305175781,-5.798339844,2.15E+08
192.168.43.70,0.017089844,-0.884765625,-0.235351563,-2.319335938,1.953125,-4.821777344,2.15E+08
192.168.43.70,0.045898438,-0.893554688,-0.28125,-3.234863281,3.112792969,-3.295898438,2.15E+08
192.168.43.70,0.12890625,-0.889160156,-0.278320313,-0.9765625,5.065917969,-0.427246094,2.15E+08
192.168.43.70,0.070800781,-0.894042969,-0.265625,-1.220703125,13.36669922,-0.244140625,2.15E+08
192.168.43.70,-0.020507813,-0.9296875,-0.251464844,-1.525878906,8.422851563,-2.868652344,2.15E+08
192.168.43.70,0.040527344,-0.876464844,-0.1953125,1.708984375,-3.112792969,-3.173828125,2.15E+08
192.168.43.70,0.122070313,-0.884277344,-0.229980469,-3.295898438,-1.220703125,-3.112792969,2.15E+08
192.168.43.70,0.165527344,-0.935546875,-0.28125,-5.004882813,6.8359375,-0.671386719,2.15E+08
192.168.43.70,0.064453125,-0.937011719,-0.281738281,-0.793457031,11.59667969,-0.915527344,2.15E+08
192.168.43.70,0.014648438,-0.927734375,-0.232421875,4.638671875,-0.915527344,-3.540039063,2.15E+08
192.168.43.70,0.106933594,-0.881835938,-0.233886719,6.713867188,-7.873535156,-3.295898438,2.15E+08
192.168.43.70,0.151855469,-0.849121094,-0.21484375,2.44140625,0.671386719,-1.647949219,2.15E+08
192.168.43.70,0.033691406,-0.8828125,-0.27734375,-2.258300781,8.7890625,-4.943847656,2.15E+08
192.168.43.70,-0.041503906,-0.915039063,-0.303222656,-0.549316406,-1.403808594,-6.469726563,2.15E+08
192.168.43.70,0.024414063,-0.907714844,-0.258789063,2.990722656,-11.47460938,-4.943847656,2.15E+08
192.168.43.70,0.091796875,-0.883789063,-0.209960938,2.380371094,-5.920410156,-2.990722656,2.15E+08
192.168.43.70,0.085449219,-0.883300781,-0.215820313,-1.342773438,3.173828125,-1.831054688,2.15E+08
192.168.43.70,0.020019531,-0.875976563,-0.205566406,-6.042480469,4.516601563,-3.173828125,2.15E+08
192.168.43.70,0.01171875,-0.9609375,-0.246582031,-8.972167969,-1.098632813,-7.202148438,2.15E+08
192.168.43.70,0.137207031,-0.974121094,-0.278808594,-2.319335938,-5.249023438,-4.089355469,2.15E+08
192.168.43.70,0.1796875,-0.880371094,-0.262207031,0.915527344,5.981445313,5.187988281,2.15E+08
192.168.43.70,0.184570313,-0.888183594,-0.2421875,0.48828125,11.65771484,3.967285156,2.15E+08
192.168.43.70,0.123046875,-0.876464844,-0.224609375,1.525878906,-0.122070313,-6.896972656,2.15E+08
192.168.43.70,0.116699219,-0.831542969,-0.218261719,-0.854492188,-12.08496094,-10.62011719,2.15E+08
192.168.43.70,0.220214844,-0.800292969,-0.288085938,-4.8828125,-7.446289063,-4.028320313,2.15E+08
192.168.43.70,0.138671875,-0.892089844,-0.322265625,-8.30078125,15.86914063,-0.427246094,2.15E+08
192.168.43.70,-0.137695313,-0.997070313,-0.229980469,-6.34765625,18.61572266,-3.356933594,2.15E+08
192.168.43.70,0.138183594,-0.843261719,-0.192871094,-3.784179688,-14.28222656,0,2.15E+08
192.168.43.70,0.143554688,-0.808105469,-0.282714844,-11.71875,7.202148438,2.868652344,2.15E+08
192.168.43.70,0.097167969,-0.847167969,-0.265625,-13.18359375,13.12255859,0.610351563,2.15E+08
192.168.43.70,-4.88E-04,-0.837402344,-0.219726563,-14.83154297,11.53564453,-1.892089844,2.15E+08
192.168.43.70,0.071777344,-0.864746094,-0.289550781,-17.08984375,11.04736328,0.915527344,2.15E+08
192.168.43.70,0.204589844,-0.832519531,-0.340820313,-11.47460938,22.4609375,8.911132813,2.15E+08
192.168.43.70,0.087402344,-0.7578125,-0.268554688,-7.080078125,36.98730469,11.71875,2.15E+08
192.168.43.70,-0.07421875,-0.893066406,-0.213867188,-11.29150391,35.52246094,4.699707031,2.15E+08
192.168.43.70,-0.025878906,-0.923828125,-0.271484375,-8.239746094,26.3671875,5.126953125,2.16E+08
192.168.43.70,0.15234375,-0.850097656,-0.33203125,-0.427246094,28.07617188,15.68603516,2.16E+08
192.168.43.70,0.216796875,-0.883789063,-0.242675781,6.34765625,33.69140625,17.76123047,2.16E+08
192.168.43.70,0.137207031,-0.883300781,-0.114746094,9.521484375,33.38623047,14.77050781,2.16E+08
192.168.43.70,0.38671875,-1.12890625,0.065429688,2.380371094,16.84570313,3.356933594,2.16E+08
192.168.43.70,0.406738281,-1.258300781,-0.106933594,-15.19775391,9.826660156,-3.234863281,2.16E+08
192.168.43.70,0.046386719,-0.97265625,-0.335449219,-26.30615234,9.521484375,17.08984375,2.16E+08
192.168.43.70,0.078613281,-0.958984375,-0.40625,-17.63916016,-13.24462891,11.59667969,2.16E+08
192.168.43.70,-0.021972656,-0.991699219,-0.389648438,-6.408691406,-7.873535156,10.37597656,2.16E+08
192.168.43.70,-0.090332031,-0.874023438,-0.202636719,1.770019531,-3.356933594,13.79394531,2.16E+08
192.168.43.70,-0.029296875,-0.805664063,-0.146972656,-4.028320313,-3.356933594,12.02392578,2.16E+08
192.168.43.70,-0.015136719,-0.895996094,-0.334472656,-12.14599609,-2.9296875,5.615234375,2.16E+08
192.168.43.70,0.120117188,-0.902832031,-0.40625,-3.234863281,-10.13183594,2.563476563,2.16E+08
192.168.43.70,0.114746094,-0.897949219,-0.323242188,3.90625,-0.915527344,3.601074219,2.16E+08
192.168.43.70,0.023925781,-0.911621094,-0.23046875,5.126953125,2.624511719,3.967285156,2.16E+08
192.168.43.70,0.072753906,-0.928710938,-0.22265625,3.601074219,-9.216308594,2.014160156,2.16E+08
192.168.43.70,0.171875,-0.930664063,-0.307128906,3.295898438,-10.80322266,2.136230469,2.16E+08
192.168.43.70,0.171386719,-0.966308594,-0.360839844,4.39453125,-3.845214844,4.39453125,2.16E+08
192.168.43.70,0.125976563,-0.860839844,-0.189453125,8.117675781,-8.239746094,8.666992188,2.16E+08
192.168.43.70,0.099121094,-0.86328125,-0.153808594,1.647949219,-6.103515625,9.460449219,2.16E+08
192.168.43.70,0.043945313,-0.98828125,-0.360839844,-5.676269531,3.967285156,8.239746094,2.16E+08
192.168.43.70,0.135742188,-1.019042969,-0.375976563,1.342773438,-5.920410156,9.216308594,2.16E+08
192.168.43.70,0.077636719,-0.850097656,-0.271484375,8.361816406,-5.065917969,16.54052734,2.16E+08
192.168.43.70,0.100097656,-0.835449219,-0.2421875,7.080078125,-3.90625,15.68603516,2.16E+08
192.168.43.70,0.098632813,-0.90625,-0.263183594,3.295898438,-3.356933594,15.38085938,2.16E+08
192.168.43.70,0.061523438,-0.956542969,-0.278320313,3.662109375,-3.112792969,18.00537109,2.16E+08
192.168.43.70,0.042480469,-0.895507813,-0.303710938,8.30078125,-2.136230469,21.97265625,2.16E+08
192.168.43.70,0.019042969,-0.876464844,-0.215820313,9.582519531,-9.765625,21.42333984,2.16E+08
192.168.43.70,-0.140625,-1.004394531,-0.233398438,2.014160156,-3.723144531,18.73779297,2.16E+08
192.168.43.70,-0.071289063,-1.002441406,-0.281738281,6.8359375,-5.065917969,17.82226563,2.16E+08
192.168.43.70,0.054199219,-0.871582031,-0.290527344,15.31982422,-6.103515625,16.96777344,2.16E+08
192.168.43.70,0.131835938,-0.856445313,-0.275878906,17.82226563,-7.568359375,18.61572266,2.16E+08
192.168.43.70,0.029296875,-0.903808594,-0.229003906,17.33398438,-5.737304688,23.01025391,2.16E+08
192.168.43.70,-0.208496094,-0.984375,-0.199707031,11.71875,0.244140625,20.75195313,2.16E+08
192.168.43.70,-0.158691406,-0.984375,-0.203613281,9.948730469,-6.958007813,16.11328125,2.16E+08
192.168.43.70,0.008300781,-0.899414063,-0.245117188,10.80322266,-11.23046875,14.40429688,2.16E+08
192.168.43.70,0.047851563,-0.873535156,-0.241210938,10.86425781,-10.80322266,14.95361328,2.16E+08
192.168.43.70,-0.08984375,-0.930664063,-0.20703125,7.629394531,-10.62011719,15.01464844,2.16E+08
192.168.43.70,-0.208496094,-0.990722656,-0.16796875,5.065917969,-11.47460938,11.90185547,2.16E+08
192.168.43.70,-0.23046875,-0.994140625,-0.153808594,2.685546875,-10.37597656,7.019042969,2.16E+08
192.168.43.70,-0.028808594,-0.965820313,-0.248046875,3.90625,-10.80322266,2.624511719,2.16E+08
192.168.43.70,0.081054688,-0.845703125,-0.280273438,10.55908203,-8.178710938,2.502441406,2.16E+08
192.168.43.70,0.01953125,-0.90625,-0.25,13.671875,-0.9765625,4.821777344,2.16E+08
192.168.43.70,-0.113769531,-0.978515625,-0.190429688,15.625,1.770019531,8.422851563,2.16E+08
192.168.43.70,-0.069335938,-0.945800781,-0.213867188,18.79882813,-3.723144531,10.37597656,2.16E+08
192.168.43.70,-0.0390625,-0.89453125,-0.183105469,17.63916016,-7.019042969,12.32910156,2.16E+08
192.168.43.70,-0.090332031,-0.957519531,-0.1796875,13.48876953,-4.699707031,12.45117188,2.16E+08
192.168.43.70,-0.118164063,-0.946289063,-0.203613281,16.05224609,-4.333496094,11.77978516,2.16E+08
192.168.43.70,-0.047363281,-0.920898438,-0.169433594,17.578125,-10.43701172,12.26806641,2.16E+08
192.168.43.70,-0.069335938,-0.944335938,-0.174316406,15.25878906,-4.8828125,12.51220703,2.16E+08
192.168.43.70,-0.107421875,-0.935546875,-0.159667969,15.625,0.122070313,11.84082031,2.17E+08
192.168.43.70,-0.139648438,-0.953125,-0.150878906,13.12255859,-0.244140625,11.41357422,2.17E+08
192.168.43.70,-0.090820313,-0.959960938,-0.15234375,13.73291016,-2.258300781,13.00048828,2.17E+08
192.168.43.70,-0.075683594,-0.924316406,-0.193359375,16.17431641,2.563476563,12.45117188,2.17E+08
192.168.43.70,-0.050292969,-0.899414063,-0.140136719,16.47949219,-0.122070313,11.59667969,2.17E+08
192.168.43.70,-0.162109375,-0.982910156,-0.129394531,10.43701172,3.479003906,12.20703125,2.17E+08
192.168.43.70,-0.193847656,-0.953613281,-0.119628906,13.24462891,2.563476563,11.96289063,2.17E+08
192.168.43.70,-0.10546875,-0.939941406,-0.12890625,12.32910156,-4.39453125,9.582519531,2.17E+08
192.168.43.70,-0.118652344,-0.9453125,-0.116210938,10.37597656,-0.793457031,8.239746094,2.17E+08
192.168.43.70,-0.216796875,-0.955566406,-0.098144531,8.544921875,7.32421875,5.37109375,2.17E+08
192.168.43.70,-0.263183594,-0.96875,-0.057128906,4.272460938,2.685546875,2.319335938,2.17E+08
192.168.43.70,-0.124511719,-0.973632813,-0.143066406,2.136230469,-6.591796875,-0.244140625,2.17E+08
192.168.43.70,-0.002441406,-0.895996094,-0.170898438,6.164550781,-9.521484375,0.244140625,2.17E+08
192.168.43.70,-0.020996094,-0.932128906,-0.214355469,6.8359375,0.793457031,3.845214844,2.17E+08
192.168.43.70,-0.11328125,-0.935546875,-0.115722656,11.29150391,3.845214844,8.544921875,2.17E+08
192.168.43.70,-0.248046875,-0.966308594,-0.066894531,8.056640625,2.746582031,8.361816406,2.17E+08
192.168.43.70,-0.162109375,-0.98046875,-0.094726563,5.249023438,-9.27734375,7.32421875,2.17E+08
192.168.43.70,-0.096679688,-0.935546875,-0.112304688,8.239746094,-5.37109375,6.286621094,2.17E+08
192.168.43.70,-0.149414063,-0.944824219,-0.130371094,9.399414063,3.173828125,3.90625,2.17E+08
192.168.43.70,-0.21484375,-0.975585938,-0.04296875,7.385253906,-0.915527344,4.028320313,2.17E+08
192.168.43.70,-0.202636719,-1.005859375,-0.1015625,7.202148438,-3.112792969,3.601074219,2.17E+08
192.168.43.70,-0.094238281,-0.916503906,-0.100097656,15.625,-3.723144531,2.319335938,2.17E+08
192.168.43.70,-0.182617188,-0.958984375,-0.092773438,12.39013672,4.516601563,-1.403808594,2.17E+08
192.168.43.70,-0.193847656,-0.980957031,-0.064453125,14.22119141,2.380371094,-2.258300781,2.17E+08
192.168.43.70,-0.13671875,-0.943359375,-0.100097656,16.54052734,-1.708984375,-3.295898438,2.17E+08
192.168.43.70,-0.069824219,-0.917480469,-0.090332031,14.52636719,-7.32421875,-1.159667969,2.17E+08
192.168.43.70,-0.184082031,-0.951660156,-0.0859375,10.55908203,-2.380371094,-2.563476563,2.17E+08
192.168.43.70,-0.255371094,-0.978027344,-0.012695313,8.972167969,-7.751464844,-6.042480469,2.17E+08
192.168.43.70,-0.202636719,-1,-0.024414063,5.798339844,-18.00537109,-8.544921875,2.17E+08
192.168.43.70,-0.045410156,-0.9765625,-0.090332031,10.19287109,-20.99609375,-7.690429688,2.17E+08
192.168.43.70,-0.025390625,-0.908203125,-0.131347656,17.08984375,-8.850097656,-5.187988281,2.17E+08
192.168.43.70,-0.118164063,-0.922363281,-0.070800781,13.24462891,-3.723144531,-2.990722656,2.17E+08
192.168.43.70,-0.169433594,-1.001953125,0,5.737304688,-7.446289063,-0.48828125,2.17E+08
192.168.43.70,-0.157714844,-0.977050781,-0.063476563,10.86425781,-7.080078125,0.305175781,2.17E+08
192.168.43.70,-0.094726563,-0.9375,-0.062988281,13.24462891,-5.126953125,0.732421875,2.17E+08
192.168.43.70,-0.103027344,-0.939941406,-0.050292969,10.07080078,-3.112792969,1.281738281,2.17E+08
192.168.43.70,-0.153320313,-0.962402344,-0.009277344,5.859375,-4.333496094,2.258300781,2.17E+08
192.168.43.70,-0.192382813,-0.991699219,-0.025390625,4.516601563,0.305175781,2.502441406,2.17E+08
192.168.43.70,-0.156738281,-0.94140625,-0.034179688,8.728027344,0.549316406,1.342773438,2.17E+08
192.168.43.70,-0.182128906,-0.947265625,-0.01953125,4.089355469,-0.610351563,-0.854492188,2.17E+08
192.168.43.70,-0.149902344,-0.973632813,-0.001953125,0.305175781,-6.042480469,-1.708984375,2.17E+08
192.168.43.70,-0.165527344,-0.965332031,-0.024902344,-0.671386719,-5.187988281,-2.807617188,2.17E+08
192.168.43.70,-0.116210938,-0.959472656,-0.065429688,-0.122070313,-5.920410156,-3.723144531,2.17E+08
192.168.43.70,-0.104492188,-0.941894531,-0.03125,1.037597656,-3.112792969,-2.807617188,2.17E+08
192.168.43.70,-0.185546875,-0.982910156,-0.010253906,-4.089355469,0.305175781,-1.46484375,2.17E+08
192.168.43.70,-0.157714844,-0.977050781,-0.018554688,-2.258300781,-5.065917969,-1.281738281,2.17E+08
192.168.43.70,-0.145019531,-0.951660156,-0.035644531,-0.732421875,-3.540039063,-2.746582031,2.17E+08
192.168.43.70,-0.106933594,-0.965332031,-0.045898438,-2.075195313,-1.708984375,-2.136230469,2.17E+08
192.168.43.70,-0.099609375,-0.944824219,-0.053710938,-0.732421875,-1.770019531,0.48828125,2.17E+08
192.168.43.70,-0.127441406,-0.945800781,-0.024414063,-3.173828125,-2.197265625,2.624511719,2.17E+08
192.168.43.70,-0.153320313,-0.981445313,-0.018554688,-6.408691406,-1.831054688,2.685546875,2.18E+08
192.168.43.70,-0.181640625,-0.985839844,0.002929688,-5.37109375,2.685546875,2.075195313,2.18E+08
192.168.43.70,-0.204101563,-0.979003906,-0.029785156,-5.065917969,5.37109375,0.732421875,2.18E+08
192.168.43.70,-0.231933594,-0.928710938,-0.175292969,-4.333496094,-8.7890625,-5.920410156,2.18E+08
192.168.43.70,0.094726563,-0.964355469,0.107910156,0.610351563,-33.87451172,-7.690429688,2.18E+08
192.168.43.70,-0.189453125,-0.958496094,-0.109375,-7.568359375,19.22607422,3.479003906,2.18E+08
192.168.43.70,-0.173828125,-0.972167969,-0.077148438,-2.014160156,-1.953125,-0.793457031,2.18E+08
192.168.43.70,-0.133789063,-0.960449219,0.008300781,-1.770019531,-2.502441406,0.9765625,2.18E+08
192.168.43.70,-0.144042969,-0.981445313,-0.03515625,-3.540039063,4.638671875,0.244140625,2.18E+08
192.168.43.70,-0.114257813,-0.940429688,-0.033203125,-2.44140625,3.479003906,-0.122070313,2.18E+08
192.168.43.70,-0.141113281,-0.965820313,-0.066894531,-6.103515625,2.380371094,-0.244140625,2.18E+08
192.168.43.70,-0.13671875,-0.958496094,-0.057617188,-4.821777344,-2.868652344,0.671386719,2.18E+08
192.168.43.70,-0.172363281,-0.975585938,-0.030761719,-5.493164063,-1.281738281,0.061035156,2.18E+08
192.168.43.70,-0.174316406,-0.974609375,-0.033203125,-4.455566406,-1.037597656,-1.708984375,2.18E+08
192.168.43.70,-0.128417969,-0.961914063,-0.015136719,-5.737304688,-4.638671875,-2.319335938,2.18E+08
192.168.43.70,-0.131347656,-0.971679688,-0.0625,-8.239746094,-3.356933594,-1.892089844,2.18E+08
192.168.43.70,-0.124023438,-0.949707031,-0.087890625,-5.554199219,-2.075195313,-1.159667969,2.18E+08
192.168.43.70,-0.135253906,-0.951660156,-0.080078125,-3.601074219,-0.732421875,-1.46484375,2.18E+08
192.168.43.70,-0.117675781,-0.962890625,-0.031738281,-3.784179688,-1.953125,-0.122070313,2.18E+08
192.168.43.70,-0.135253906,-0.962402344,-0.059082031,-5.126953125,-0.854492188,1.098632813,2.18E+08
192.168.43.70,-0.137695313,-0.963378906,-0.053710938,-5.554199219,-0.427246094,1.647949219,2.18E+08
192.168.43.70,-0.160644531,-0.965332031,-0.06640625,-5.065917969,1.770019531,0.9765625,2.18E+08
192.168.43.70,-0.148925781,-0.961425781,-0.076660156,-3.540039063,-1.098632813,0.549316406,2.18E+08
192.168.43.70,-0.129394531,-0.96484375,-0.041992188,-2.9296875,-3.845214844,1.037597656,2.18E+08
192.168.43.70,-0.157226563,-0.979980469,-0.064941406,-3.601074219,-0.610351563,1.098632813,2.18E+08
192.168.43.70,-0.148925781,-0.950683594,-0.075195313,-0.305175781,-0.244140625,0.671386719,2.18E+08
192.168.43.70,-0.138671875,-0.961425781,-0.072753906,-0.183105469,-2.014160156,0.549316406,2.18E+08
192.168.43.70,-0.092773438,-0.943847656,-0.071289063,0.793457031,-4.8828125,2.258300781,2.18E+08
192.168.43.70,-0.125488281,-0.949707031,-0.059570313,-1.342773438,-1.770019531,3.723144531,2.18E+08
192.168.43.70,-0.225097656,-0.983398438,-0.053222656,-2.746582031,1.159667969,1.342773438,2.18E+08
192.168.43.70,-0.1953125,-0.981933594,-0.037597656,-1.342773438,-4.638671875,-1.281738281,2.18E+08
192.168.43.70,-0.108886719,-0.959472656,-0.064453125,-0.671386719,-6.958007813,-1.708984375,2.18E+08
192.168.43.70,-0.083984375,-0.947753906,-0.100585938,-0.549316406,-3.234863281,0.305175781,2.18E+08
192.168.43.70,-0.125488281,-0.948730469,-0.096679688,1.647949219,1.220703125,2.319335938,2.18E+08
192.168.43.70,-0.15234375,-0.970703125,-0.068847656,3.295898438,1.281738281,3.051757813,2.18E+08
192.168.43.70,-0.116210938,-0.953613281,-0.045410156,4.577636719,-0.915527344,4.516601563,2.18E+08
192.168.43.70,-0.158691406,-0.96875,-0.065429688,1.46484375,3.479003906,5.310058594,2.18E+08
192.168.43.70,-0.185058594,-0.955078125,-0.040527344,2.807617188,4.943847656,2.868652344,2.18E+08
192.168.43.70,-0.204101563,-0.972167969,-0.047363281,0.549316406,2.624511719,-1.342773438,2.18E+08
192.168.43.70,-0.169433594,-0.964355469,-0.048828125,0.183105469,-2.136230469,-3.479003906,2.18E+08
192.168.43.70,-0.12890625,-0.956542969,-0.079101563,0.244140625,-3.479003906,-4.028320313,2.18E+08
192.168.43.70,-0.09765625,-0.951171875,-0.075683594,1.647949219,-2.746582031,-2.868652344,2.18E+08
192.168.43.70,-0.162109375,-0.971679688,-0.054199219,2.44140625,2.258300781,-1.708984375,2.18E+08
192.168.43.70,-0.209472656,-0.975097656,-0.04296875,2.746582031,1.953125,-2.380371094,2.18E+08
192.168.43.70,-0.084960938,-0.959472656,-0.05078125,4.272460938,-5.065917969,-2.990722656,2.18E+08
192.168.43.70,-0.14453125,-0.956054688,-0.067871094,2.9296875,2.44140625,-2.197265625,2.18E+08
192.168.43.70,-0.209472656,-0.96484375,-0.066894531,4.943847656,4.821777344,-4.333496094,2.18E+08
192.168.43.70,-0.146972656,-0.955566406,-0.014648438,5.126953125,-5.920410156,-6.591796875,2.18E+08
192.168.43.70,-0.060546875,-0.973632813,-0.064941406,1.831054688,-7.690429688,-4.8828125,2.18E+08
192.168.43.70,-0.116699219,-0.936035156,-0.077148438,3.112792969,-1.525878906,-1.403808594,2.18E+08
192.168.43.70,-0.180175781,-0.975585938,-0.049316406,3.479003906,0.793457031,-2.136230469,2.19E+08
192.168.43.70,-0.172363281,-0.973144531,-0.010742188,5.187988281,-2.990722656,-4.272460938,2.19E+08
192.168.43.70,-0.145019531,-0.968261719,-0.0234375,2.502441406,-4.333496094,-5.310058594,2.19E+08
192.168.43.70,-0.124511719,-0.961425781,-0.052246094,1.220703125,-3.967285156,-5.798339844,2.19E+08
192.168.43.70,-0.151855469,-0.965332031,-0.048828125,1.220703125,-2.868652344,-6.042480469,2.19E+08
192.168.43.70,-0.134765625,-0.96484375,-0.057128906,2.563476563,-5.310058594,-7.202148438,2.19E+08
192.168.43.70,-0.039550781,-0.943847656,-0.047851563,3.234863281,-9.887695313,-5.676269531,2.19E+08
192.168.43.70,-0.112304688,-0.955566406,-0.056152344,0.061035156,-3.967285156,-3.173828125,2.19E+08
192.168.43.70,-0.160644531,-0.981933594,-0.027832031,0.122070313,-4.699707031,-2.9296875,2.19E+08
192.168.43.70,-0.118652344,-0.970214844,-0.044921875,1.953125,-5.859375,-2.9296875,2.19E+08
192.168.43.70,-0.084472656,-0.958984375,-0.040527344,2.319335938,-5.37109375,-1.831054688,2.19E+08
192.168.43.70,-0.08984375,-0.969238281,-0.07421875,2.136230469,-3.540039063,0.122070313,2.19E+08
192.168.43.70,-0.10546875,-0.944824219,-0.073730469,6.408691406,-3.051757813,1.159667969,2.19E+08
192.168.43.70,-0.149902344,-0.974121094,-0.021484375,7.141113281,-2.807617188,-0.244140625,2.19E+08
192.168.43.70,-0.153808594,-0.99609375,-0.005371094,7.385253906,-3.356933594,-1.770019531,2.19E+08
192.168.43.70,-0.123535156,-0.958496094,-0.030273438,8.361816406,-2.44140625,-1.953125,2.19E+08
192.168.43.70,-0.116210938,-0.955078125,-0.025390625,7.080078125,-2.746582031,-1.403808594,2.19E+08
192.168.43.70,-0.156738281,-0.990234375,-0.049316406,6.164550781,-2.258300781,-1.525878906,2.19E+08
192.168.43.70,-0.032714844,-0.954101563,-0.088378906,13.79394531,-8.422851563,-1.281738281,2.19E+08
192.168.43.70,-0.037109375,-0.934570313,-0.047851563,15.93017578,-5.37109375,1.525878906,2.19E+08
192.168.43.70,-0.167480469,-0.983398438,-0.010253906,12.93945313,-3.173828125,3.41796875,2.19E+08
192.168.43.70,0.010253906,-0.973632813,-0.070800781,17.76123047,-20.32470703,6.652832031,2.19E+08
192.168.43.70,-0.170410156,-0.963378906,-0.057128906,20.87402344,-5.615234375,15.93017578,2.19E+08
192.168.43.70,-0.184082031,-0.949707031,0.018554688,29.35791016,-7.934570313,14.95361328,2.19E+08
192.168.43.70,-0.145507813,-0.930175781,0.064941406,25.08544922,-11.29150391,16.05224609,2.19E+08
192.168.43.70,-0.112792969,-0.958007813,-0.094238281,20.14160156,-15.44189453,17.21191406,2.19E+08
192.168.43.70,-0.240722656,-0.923339844,-0.024414063,25.20751953,34.72900391,39.12353516,2.19E+08
192.168.43.70,-0.30078125,-0.986816406,-0.126953125,34.11865234,31.18896484,30.02929688,2.19E+08
192.168.43.70,-0.177734375,-0.881835938,0.189453125,54.32128906,-7.873535156,21.97265625,2.19E+08
192.168.43.70,-0.17578125,-0.996582031,0.173339844,42.48046875,3.479003906,17.578125,2.19E+08
192.168.43.70,-0.212402344,-0.934570313,0.038085938,41.13769531,-11.84082031,15.74707031,2.19E+08
192.168.43.70,-0.358398438,-0.932617188,0.110351563,44.00634766,-19.04296875,14.34326172,2.19E+08
192.168.43.70,-0.495117188,-1.030273438,0.163085938,40.34423828,-11.90185547,7.934570313,2.19E+08
192.168.43.70,0.064941406,-0.990234375,0.196289063,51.08642578,-21.42333984,3.784179688,2.19E+08
192.168.43.70,0.059570313,-0.817382813,0.082519531,54.19921875,1.403808594,16.05224609,2.19E+08
192.168.43.70,-0.271484375,-0.916992188,0.150390625,54.99267578,14.89257813,19.04296875,2.19E+08
192.168.43.70,-0.474609375,-1.012695313,0.327636719,56.51855469,7.873535156,12.75634766,2.19E+08
192.168.43.70,-0.206054688,-1.023925781,0.329101563,53.46679688,-9.460449219,4.211425781,2.19E+08
192.168.43.70,-0.006347656,-0.920410156,0.239746094,51.69677734,-10.86425781,7.32421875,2.19E+08
192.168.43.70,-0.19921875,-0.898925781,0.251464844,51.45263672,8.361816406,16.78466797,2.19E+08
192.168.43.70,-0.462890625,-0.9453125,0.338867188,50.53710938,14.70947266,12.51220703,2.19E+08
192.168.43.70,-0.26953125,-0.965332031,0.299316406,47.18017578,-0.549316406,0.915527344,2.19E+08
192.168.43.70,-0.043945313,-0.898925781,0.337402344,46.875,-11.90185547,3.90625,2.19E+08
192.168.43.70,-0.247070313,-0.918457031,0.331542969,43.09082031,1.037597656,13.48876953,2.19E+08
192.168.43.70,-0.34375,-0.920410156,0.3359375,45.22705078,1.342773438,12.02392578,2.19E+08
192.168.43.70,-0.323242188,-0.895019531,0.350097656,45.71533203,-4.699707031,1.953125,2.19E+08
192.168.43.70,-0.111816406,-0.894042969,0.366699219,46.44775391,-10.31494141,0.732421875,2.19E+08
192.168.43.70,-0.184082031,-0.860351563,0.396484375,46.875,1.831054688,6.774902344,2.19E+08
192.168.43.70,-0.31640625,-0.890625,0.4296875,45.59326172,13.12255859,7.690429688,2.19E+08
192.168.43.70,-0.340820313,-0.953125,0.493164063,41.13769531,11.47460938,4.089355469,2.20E+08
192.168.43.70,-0.220214844,-0.958007813,0.474609375,37.23144531,4.516601563,2.380371094,2.20E+08
192.168.43.70,-0.190917969,-0.873535156,0.422851563,34.79003906,4.8828125,5.37109375,2.20E+08
192.168.43.70,-0.234863281,-0.854492188,0.452636719,35.70556641,7.507324219,9.704589844,2.20E+08
192.168.43.70,-0.327148438,-0.927734375,0.514160156,35.52246094,9.094238281,9.948730469,2.20E+08
192.168.43.70,-0.306152344,-0.958984375,0.552734375,32.47070313,4.272460938,6.408691406,2.20E+08
192.168.43.70,-0.277832031,-0.89453125,0.504394531,25.69580078,2.990722656,5.554199219,2.20E+08
192.168.43.70,-0.233886719,-0.863769531,0.466308594,24.04785156,2.502441406,6.774902344,2.20E+08
192.168.43.70,-0.283203125,-0.881347656,0.510253906,29.05273438,8.544921875,8.972167969,2.20E+08
192.168.43.70,-0.418945313,-0.9140625,0.53515625,27.46582031,7.568359375,4.455566406,2.20E+08
192.168.43.70,-0.273925781,-0.87109375,0.525878906,21.36230469,-5.920410156,-2.563476563,2.20E+08
192.168.43.70,-0.227050781,-0.842285156,0.499023438,19.59228516,-5.126953125,-1.220703125,2.20E+08
192.168.43.70,-0.254882813,-0.852539063,0.51953125,23.25439453,0.549316406,2.746582031,2.20E+08
192.168.43.70,-0.291015625,-0.863769531,0.540527344,23.25439453,3.051757813,5.676269531,2.20E+08
192.168.43.70,-0.300292969,-0.828613281,0.541992188,20.5078125,0.305175781,5.126953125,2.20E+08
192.168.43.70,-0.276855469,-0.829101563,0.538085938,19.59228516,-1.281738281,2.685546875,2.20E+08
192.168.43.70,-0.254882813,-0.856933594,0.5546875,20.56884766,0.793457031,3.540039063,2.20E+08
192.168.43.70,-0.301757813,-0.840820313,0.568359375,19.83642578,2.990722656,5.676269531,2.20E+08
192.168.43.70,-0.308105469,-0.826171875,0.567871094,16.47949219,-0.122070313,5.493164063,2.20E+08
192.168.43.70,-0.286621094,-0.827636719,0.561035156,14.46533203,-2.44140625,3.845214844,2.20E+08
192.168.43.70,-0.285644531,-0.83203125,0.567382813,15.56396484,-1.770019531,3.479003906,2.20E+08
192.168.43.70,-0.310058594,-0.834960938,0.568359375,17.08984375,-0.610351563,2.44140625,2.20E+08
192.168.43.70,-0.291015625,-0.825195313,0.573242188,17.63916016,-2.868652344,0.732421875,2.20E+08
192.168.43.70,-0.283691406,-0.80078125,0.599609375,18.06640625,-2.807617188,0.061035156,2.20E+08
192.168.43.70,-0.317382813,-0.814453125,0.587890625,15.31982422,-1.647949219,-0.48828125,2.20E+08
192.168.43.70,-0.26953125,-0.819824219,0.590820313,14.52636719,-6.225585938,-0.427246094,2.20E+08
192.168.43.70,-0.269042969,-0.812988281,0.59765625,14.77050781,-4.455566406,1.46484375,2.20E+08
192.168.43.70,-0.288574219,-0.807617188,0.604980469,15.07568359,-2.075195313,2.44140625,2.20E+08
192.168.43.70,-0.303222656,-0.798828125,0.609375,15.01464844,-1.647949219,1.525878906,2.20E+08
192.168.43.70,-0.291503906,-0.802246094,0.619628906,14.09912109,-3.540039063,0.305175781,2.20E+08
192.168.43.70,-0.287597656,-0.810546875,0.616699219,12.93945313,-5.493164063,0.061035156,2.20E+08
192.168.43.70,-0.274414063,-0.802246094,0.619140625,13.671875,-5.859375,0.671386719,2.20E+08
192.168.43.70,-0.278320313,-0.796386719,0.622558594,14.46533203,-3.723144531,2.136230469,2.20E+08
192.168.43.70,-0.278320313,-0.790527344,0.634277344,14.58740234,-3.234863281,3.784179688,2.20E+08
192.168.43.70,-0.298339844,-0.786621094,0.623046875,14.03808594,-3.662109375,4.272460938,2.20E+08
192.168.43.70,-0.284179688,-0.779785156,0.645019531,16.17431641,-4.455566406,3.90625,2.20E+08
192.168.43.70,-0.30078125,-0.779296875,0.650390625,14.83154297,-2.197265625,2.014160156,2.20E+08
192.168.43.70,-0.293945313,-0.778320313,0.642089844,12.57324219,-4.516601563,1.159667969,2.20E+08
192.168.43.70,-0.270507813,-0.771972656,0.655761719,13.30566406,-7.141113281,2.319335938,2.20E+08
192.168.43.70,-0.286132813,-0.77734375,0.6484375,13.12255859,-5.615234375,3.967285156,2.20E+08
192.168.43.70,-0.267089844,-0.770996094,0.668457031,14.03808594,-5.249023438,5.065917969,2.20E+08
192.168.43.70,-0.290527344,-0.750976563,0.673828125,12.63427734,-1.831054688,5.615234375,2.20E+08
192.168.43.70,-0.30078125,-0.772460938,0.664550781,10.62011719,-1.953125,5.310058594,2.20E+08
192.168.43.70,-0.286621094,-0.76953125,0.662597656,11.53564453,-4.028320313,4.638671875,2.20E+08
192.168.43.70,-0.275390625,-0.755859375,0.673828125,13.79394531,-2.380371094,5.126953125,2.20E+08
192.168.43.70,-0.28515625,-0.758300781,0.686035156,13.12255859,0.549316406,6.164550781,2.20E+08
192.168.43.70,-0.294433594,-0.750488281,0.6796875,10.7421875,-0.244140625,6.8359375,2.20E+08
192.168.43.70,-0.295898438,-0.749511719,0.683105469,11.53564453,-0.48828125,7.080078125,2.20E+08
192.168.43.70,-0.287597656,-0.754882813,0.686035156,11.16943359,0.48828125,6.958007813,2.20E+08
192.168.43.70,-0.296875,-0.749511719,0.684082031,12.02392578,2.563476563,6.896972656,2.20E+08
192.168.43.70,-0.315917969,-0.728515625,0.69140625,13.79394531,3.051757813,5.859375,2.21E+08
192.168.43.70,-0.30078125,-0.736328125,0.697265625,12.39013672,-0.244140625,5.859375,2.21E+08
192.168.43.70,-0.291015625,-0.741699219,0.705078125,11.35253906,-0.610351563,5.859375,2.21E+08
192.168.43.70,-0.2890625,-0.740234375,0.696777344,11.10839844,2.380371094,7.019042969,2.21E+08
192.168.43.70,-0.305664063,-0.721679688,0.705078125,12.93945313,6.042480469,8.7890625,2.21E+08
192.168.43.70,-0.323242188,-0.732910156,0.708984375,11.77978516,6.103515625,8.7890625,2.21E+08
192.168.43.70,-0.318847656,-0.716308594,0.709472656,11.29150391,3.601074219,7.751464844,2.21E+08
192.168.43.70,-0.324707031,-0.715820313,0.715332031,10.68115234,3.479003906,6.591796875,2.21E+08
192.168.43.70,-0.3515625,-0.7265625,0.696289063,10.37597656,3.540039063,5.37109375,2.21E+08
192.168.43.70,-0.282226563,-0.73828125,0.715332031,13.00048828,-1.159667969,6.408691406,2.21E+08
192.168.43.70,-0.297851563,-0.710449219,0.732421875,14.70947266,3.112792969,8.7890625,2.21E+08
192.168.43.70,-0.388671875,-0.692382813,0.711425781,14.03808594,6.469726563,7.263183594,2.21E+08
192.168.43.70,-0.360351563,-0.688964844,0.730957031,14.09912109,-2.380371094,4.943847656,2.21E+08
192.168.43.70,-0.309082031,-0.715332031,0.722167969,12.45117188,-3.967285156,3.051757813,2.21E+08
192.168.43.70,-0.295898438,-0.7109375,0.75,15.50292969,-2.014160156,4.089355469,2.21E+08
192.168.43.70,-0.3671875,-0.661621094,0.743164063,14.46533203,2.380371094,3.295898438,2.21E+08
192.168.43.70,-0.326171875,-0.701660156,0.736816406,11.16943359,-0.793457031,1.831054688,2.21E+08
192.168.43.70,-0.313964844,-0.6796875,0.758300781,13.30566406,-1.159667969,1.708984375,2.21E+08
192.168.43.70,-0.344238281,-0.661621094,0.750488281,10.86425781,0.48828125,1.098632813,2.21E+08
192.168.43.70,-0.3359375,-0.694824219,0.752929688,9.704589844,-1.342773438,-1.708984375,2.21E+08
192.168.43.70,-0.3359375,-0.679199219,0.753417969,10.37597656,-1.586914063,-1.770019531,2.21E+08
192.168.43.70,-0.337402344,-0.671386719,0.756347656,10.31494141,-2.807617188,-2.9296875,2.21E+08
192.168.43.70,-0.328613281,-0.670898438,0.765625,9.948730469,-3.234863281,-4.516601563,2.21E+08
192.168.43.70,-0.316894531,-0.66796875,0.774902344,8.666992188,-1.831054688,-4.577636719,2.21E+08
192.168.43.70,-0.357421875,-0.662597656,0.760742188,6.225585938,-2.380371094,-4.699707031,2.21E+08
192.168.43.70,-0.303710938,-0.68359375,0.774902344,4.150390625,-8.728027344,-3.173828125,2.21E+08
192.168.43.70,-0.263671875,-0.6875,0.775878906,4.272460938,-7.202148438,-0.305175781,2.21E+08
192.168.43.70,-0.318359375,-0.661621094,0.770996094,7.202148438,0.48828125,0.549316406,2.21E+08
192.168.43.70,-0.397949219,-0.659667969,0.748046875,6.958007813,2.502441406,-2.563476563,2.21E+08
192.168.43.70,-0.286621094,-0.684082031,0.763183594,8.483886719,-6.164550781,-2.502441406,2.21E+08
192.168.43.70,-0.258789063,-0.671875,0.8046875,12.57324219,-1.953125,-0.793457031,2.21E+08
192.168.43.70,-0.379882813,-0.632324219,0.77734375,9.399414063,4.211425781,-1.098632813,2.21E+08
192.168.43.70,-0.3046875,-0.680664063,0.779785156,5.004882813,-3.295898438,-0.610351563,2.21E+08
192.168.43.70,-0.294433594,-0.673828125,0.784179688,7.995605469,-2.075195313,-0.671386719,2.21E+08
192.168.43.70,-0.325683594,-0.645996094,0.790039063,10.98632813,2.990722656,-1.281738281,2.21E+08
192.168.43.70,-0.33203125,-0.629394531,0.783691406,9.948730469,4.699707031,-1.281738281,2.21E+08
192.168.43.70,-0.313964844,-0.650390625,0.793457031,7.507324219,2.990722656,0.915527344,2.21E+08
192.168.43.70,-0.305664063,-0.678222656,0.793457031,6.713867188,2.563476563,1.586914063,2.21E+08
192.168.43.70,-0.376464844,-0.616699219,0.789550781,9.765625,4.272460938,-1.098632813,2.21E+08
192.168.43.70,-0.327636719,-0.616210938,0.809082031,5.554199219,-1.892089844,-3.479003906,2.21E+08
192.168.43.70,-0.295898438,-0.641113281,0.812988281,-0.183105469,-4.211425781,-0.9765625,2.21E+08
192.168.43.70,-0.314941406,-0.647460938,0.79296875,-2.685546875,-1.831054688,1.708984375,2.21E+08
192.168.43.70,-0.313964844,-0.655761719,0.7890625,-2.075195313,0.183105469,2.624511719,2.21E+08
192.168.43.70,-0.304199219,-0.659179688,0.796386719,0.183105469,1.770019531,2.319335938,2.21E+08
192.168.43.70,-0.344726563,-0.648925781,0.787597656,0.671386719,3.662109375,2.014160156,2.21E+08
192.168.43.70,-0.307617188,-0.646972656,0.796386719,2.014160156,1.159667969,1.525878906,2.21E+08
192.168.43.70,-0.287109375,-0.635253906,0.811035156,2.380371094,4.39453125,4.638671875,2.21E+08
192.168.43.70,-0.341308594,-0.6484375,0.7890625,0.122070313,9.460449219,5.737304688,2.21E+08
192.168.43.70,-0.317382813,-0.678710938,0.790527344,1.159667969,6.591796875,5.37109375,2.21E+08
192.168.43.70,-0.322265625,-0.62890625,0.803710938,4.272460938,6.530761719,6.774902344,2.21E+08
192.168.43.70,-0.370605469,-0.589355469,0.802734375,1.525878906,8.483886719,7.690429688,2.22E+08
192.168.43.70,-0.37109375,-0.623535156,0.798339844,-4.577636719,5.187988281,6.896972656,2.22E+08
192.168.43.70,-0.328613281,-0.680175781,0.780273438,-7.141113281,0.549316406,6.286621094,2.22E+08
192.168.43.70,-0.335449219,-0.667480469,0.783203125,-1.342773438,0.9765625,6.34765625,2.22E+08
192.168.43.70,-0.388183594,-0.592285156,0.798828125,1.159667969,0.9765625,4.028320313,2.22E+08
192.168.43.70,-0.3828125,-0.617675781,0.784179688,-5.737304688,-1.098632813,0.305175781,2.22E+08
192.168.43.70,-0.301757813,-0.6796875,0.794433594,-6.652832031,-3.112792969,-0.854492188,2.22E+08
192.168.43.70,-0.347167969,-0.631835938,0.794921875,-3.723144531,0.305175781,0.305175781,2.22E+08
192.168.43.70,-0.341308594,-0.630371094,0.794921875,-7.446289063,-0.732421875,1.525878906,2.22E+08
192.168.43.70,-0.379882813,-0.634277344,0.772949219,-9.094238281,1.037597656,-0.061035156,2.22E+08
192.168.43.70,-0.3203125,-0.688964844,0.770019531,-7.8125,-0.122070313,-2.319335938,2.22E+08
192.168.43.70,-0.324707031,-0.644042969,0.795410156,-1.708984375,3.845214844,-1.46484375,2.22E+08
192.168.43.70,-0.375488281,-0.612792969,0.791015625,-5.676269531,3.967285156,-1.037597656,2.22E+08
192.168.43.70,-0.374023438,-0.654785156,0.772460938,-13.06152344,-1.831054688,-2.197265625,2.22E+08
192.168.43.70,-0.323242188,-0.678222656,0.754882813,-13.00048828,-5.37109375,-3.112792969,2.22E+08
192.168.43.70,-0.29296875,-0.678222656,0.783203125,-7.202148438,0.244140625,-0.854492188,2.22E+08
192.168.43.70,-0.411621094,-0.603515625,0.787109375,-7.8125,6.042480469,-1.46484375,2.22E+08
192.168.43.70,-0.382324219,-0.658203125,0.752441406,-18.06640625,-3.601074219,-4.272460938,2.22E+08
192.168.43.70,-0.261230469,-0.720214844,0.758300781,-15.19775391,-5.432128906,-3.41796875,2.22E+08
192.168.43.70,-0.372070313,-0.643066406,0.766113281,-7.751464844,7.32421875,-4.39453125,2.22E+08
192.168.43.70,-0.399414063,-0.647460938,0.758300781,-12.87841797,3.295898438,-7.263183594,2.22E+08
192.168.43.70,-0.296875,-0.696289063,0.760253906,-17.15087891,-5.493164063,-7.141113281,2.22E+08
192.168.43.70,-0.314941406,-0.693847656,0.740722656,-16.17431641,0.244140625,-5.554199219,2.22E+08
192.168.43.70,-0.356933594,-0.694824219,0.730957031,-12.93945313,3.662109375,-5.37109375,2.22E+08
192.168.43.70,-0.34375,-0.670410156,0.748535156,-11.23046875,1.342773438,-7.263183594,2.22E+08
192.168.43.70,-0.312988281,-0.695800781,0.73828125,-13.85498047,1.892089844,-7.751464844,2.22E+08
192.168.43.70,-0.315917969,-0.708007813,0.731445313,-12.6953125,4.760742188,-5.493164063,2.22E+08
192.168.43.70,-0.346191406,-0.682128906,0.7421875,-11.47460938,6.042480469,-5.004882813,2.22E+08
192.168.43.70,-0.37109375,-0.689941406,0.724609375,-15.38085938,4.39453125,-7.629394531,2.22E+08
192.168.43.70,-0.325195313,-0.720214844,0.712890625,-16.72363281,-0.061035156,-9.643554688,2.22E+08
192.168.43.70,-0.283203125,-0.728515625,0.712402344,-14.28222656,0.305175781,-6.896972656,2.22E+08
192.168.43.70,-0.310058594,-0.697753906,0.736816406,-12.02392578,4.8828125,-2.502441406,2.22E+08
192.168.43.70,-0.373046875,-0.703613281,0.713378906,-17.45605469,5.432128906,-2.44140625,2.22E+08
192.168.43.70,-0.365234375,-0.731445313,0.684570313,-20.32470703,-0.915527344,-6.469726563,2.22E+08
192.168.43.70,-0.311035156,-0.745117188,0.684570313,-15.19775391,-3.112792969,-9.643554688,2.22E+08
192.168.43.70,-0.299804688,-0.725097656,0.705078125,-11.29150391,0.9765625,-9.338378906,2.22E+08
192.168.43.70,-0.298339844,-0.729980469,0.702636719,-13.48876953,4.028320313,-6.225585938,2.22E+08
192.168.43.70,-0.321777344,-0.729492188,0.69140625,-15.99121094,5.493164063,-3.662109375,2.22E+08
192.168.43.70,-0.32421875,-0.753417969,0.671875,-16.05224609,5.004882813,-3.295898438,2.22E+08
192.168.43.70,-0.340820313,-0.7421875,0.676269531,-12.93945313,6.164550781,-5.981445313,2.22E+08
192.168.43.70,-0.345214844,-0.734863281,0.67578125,-12.63427734,5.737304688,-10.37597656,2.22E+08
192.168.43.70,-0.309570313,-0.749511719,0.67578125,-14.22119141,2.319335938,-12.08496094,2.22E+08
192.168.43.70,-0.275390625,-0.762207031,0.674316406,-14.70947266,3.234863281,-8.972167969,2.22E+08
192.168.43.70,-0.32421875,-0.758300781,0.662109375,-15.31982422,6.713867188,-3.356933594,2.22E+08
192.168.43.70,-0.345214844,-0.745605469,0.662109375,-16.41845703,4.455566406,-3.356933594,2.22E+08
192.168.43.70,-0.3046875,-0.762207031,0.657226563,-17.82226563,1.953125,-6.103515625,2.22E+08
192.168.43.70,-0.287109375,-0.79296875,0.636230469,-16.72363281,4.211425781,-5.187988281,2.22E+08
192.168.43.70,-0.33203125,-0.774414063,0.641113281,-12.08496094,7.873535156,-3.41796875,2.22E+08
192.168.43.70,-0.358886719,-0.764648438,0.640136719,-11.59667969,7.019042969,-6.774902344,2.22E+08
192.168.43.70,-0.323242188,-0.767089844,0.642089844,-12.6953125,3.784179688,-11.71875,2.22E+08
192.168.43.70,-0.291503906,-0.782714844,0.638671875,-15.01464844,1.892089844,-10.98632813,2.23E+08
192.168.43.70,-0.27734375,-0.802246094,0.623535156,-15.93017578,0.915527344,-5.37109375,2.23E+08
192.168.43.70,-0.3203125,-0.789550781,0.6171875,-13.24462891,4.699707031,-2.990722656,2.23E+08
192.168.43.70,-0.33203125,-0.787109375,0.614746094,-10.00976563,6.408691406,-4.699707031,2.23E+08
192.168.43.70,-0.299804688,-0.786621094,0.628417969,-9.399414063,4.8828125,-6.286621094,2.23E+08
192.168.43.70,-0.291015625,-0.80078125,0.615722656,-11.04736328,5.249023438,-5.37109375,2.23E+08
192.168.43.70,-0.311523438,-0.799804688,0.605957031,-10.31494141,6.652832031,-3.723144531,2.23E+08
192.168.43.70,-0.328613281,-0.79296875,0.606933594,-9.765625,5.798339844,-3.112792969,2.23E+08
192.168.43.70,-0.3203125,-0.801269531,0.598632813,-10.37597656,3.173828125,-4.821777344,2.23E+08
192.168.43.70,-0.298828125,-0.794921875,0.608398438,-9.643554688,2.868652344,-6.591796875,2.23E+08
192.168.43.70,-0.301269531,-0.8125,0.599609375,-10.43701172,4.272460938,-5.432128906,2.23E+08
192.168.43.70,-0.321777344,-0.798828125,0.593261719,-11.96289063,3.479003906,-4.272460938,2.23E+08
192.168.43.70,-0.310058594,-0.810058594,0.588867188,-11.96289063,1.525878906,-5.737304688,2.23E+08
192.168.43.70,-0.295410156,-0.812988281,0.587890625,-10.49804688,2.9296875,-6.8359375,2.23E+08
192.168.43.70,-0.299804688,-0.814941406,0.583984375,-9.826660156,4.39453125,-5.798339844,2.23E+08
192.168.43.70,-0.306152344,-0.812011719,0.583496094,-10.31494141,3.601074219,-4.577636719,2.23E+08
192.168.43.70,-0.295410156,-0.822753906,0.57421875,-10.37597656,2.746582031,-3.967285156,2.23E+08
192.168.43.70,-0.291992188,-0.823242188,0.578125,-9.27734375,4.272460938,-3.479003906,2.23E+08
192.168.43.70,-0.314453125,-0.814453125,0.571777344,-9.033203125,6.103515625,-3.41796875,2.23E+08
192.168.43.70,-0.302734375,-0.828613281,0.563964844,-9.765625,4.272460938,-3.845214844,2.23E+08
192.168.43.70,-0.294921875,-0.830078125,0.561035156,-8.117675781,4.089355469,-4.089355469,2.23E+08
192.168.43.70,-0.306152344,-0.826171875,0.561523438,-5.981445313,6.042480469,-4.150390625,2.23E+08
192.168.43.70,-0.305664063,-0.822265625,0.562988281,-6.408691406,5.798339844,-5.004882813,2.23E+08
192.168.43.70,-0.297851563,-0.83203125,0.557617188,-7.385253906,5.798339844,-5.432128906,2.23E+08
192.168.43.70,-0.296386719,-0.836914063,0.552734375,-7.873535156,4.455566406,-3.295898438,2.23E+08
192.168.43.70,-0.3046875,-0.835449219,0.545898438,-7.934570313,2.197265625,-1.098632813,2.23E+08
192.168.43.70,-0.3046875,-0.826171875,0.555175781,-6.408691406,2.136230469,-1.46484375,2.23E+08
192.168.43.70,-0.293945313,-0.841796875,0.545410156,-6.896972656,3.051757813,-2.502441406,2.23E+08
192.168.43.70,-0.291992188,-0.845214844,0.540039063,-5.920410156,4.516601563,-2.44140625,2.23E+08
192.168.43.70,-0.303710938,-0.839355469,0.538085938,-3.845214844,5.615234375,-1.159667969,2.23E+08
192.168.43.70,-0.311035156,-0.829589844,0.550292969,-4.028320313,4.028320313,-0.549316406,2.23E+08
192.168.43.70,-0.306640625,-0.831542969,0.547851563,-6.042480469,3.112792969,-1.892089844,2.23E+08
192.168.43.70,-0.306640625,-0.837402344,0.535644531,-6.713867188,3.173828125,-3.234863281,2.23E+08
192.168.43.70,-0.302246094,-0.849121094,0.527832031,-5.737304688,2.014160156,-2.746582031,2.23E+08
192.168.43.70,-0.283203125,-0.849609375,0.533203125,-4.39453125,0.183105469,-1.159667969,2.23E+08
192.168.43.70,-0.303710938,-0.833007813,0.539550781,-2.868652344,2.44140625,-0.610351563,2.23E+08
192.168.43.70,-0.306640625,-0.839355469,0.533691406,-3.601074219,2.990722656,-1.46484375,2.23E+08
192.168.43.70,-0.294921875,-0.849121094,0.525390625,-3.601074219,2.197265625,-1.281738281,2.23E+08
192.168.43.70,-0.280761719,-0.848144531,0.535644531,-2.136230469,2.258300781,0.305175781,2.23E+08
192.168.43.70,-0.319824219,-0.83984375,0.529785156,-2.258300781,3.723144531,0.305175781,2.23E+08
192.168.43.70,-0.311523438,-0.846679688,0.521972656,-1.953125,2.258300781,-1.46484375,2.23E+08
192.168.43.70,-0.305175781,-0.834472656,0.53515625,-1.037597656,1.953125,-2.319335938,2.23E+08
192.168.43.70,-0.299316406,-0.841308594,0.533203125,-3.112792969,1.098632813,-2.502441406,2.23E+08
192.168.43.70,-0.301757813,-0.853027344,0.520996094,-4.150390625,0.48828125,-2.197265625,2.23E+08
192.168.43.70,-0.288085938,-0.854003906,0.520996094,-1.953125,0.122070313,-1.403808594,2.23E+08
192.168.43.70,-0.301269531,-0.842285156,0.529785156,0.305175781,1.831054688,0,2.23E+08
192.168.43.70,-0.311523438,-0.845703125,0.5234375,-0.305175781,1.220703125,0.183105469,2.23E+08
192.168.43.70,-0.301269531,-0.850585938,0.522949219,0.061035156,-0.061035156,-0.793457031,2.23E+08
192.168.43.70,-0.296386719,-0.844726563,0.529296875,0.9765625,0.305175781,-0.793457031,2.23E+08
192.168.43.70,-0.303222656,-0.84765625,0.524414063,1.159667969,0.48828125,0.48828125,2.23E+08
192.168.43.70,-0.297851563,-0.869140625,0.506347656,3.295898438,-1.220703125,1.586914063,2.24E+08
192.168.43.70,-0.304199219,-0.8515625,0.520507813,8.972167969,-0.366210938,1.586914063,2.24E+08
192.168.43.70,-0.307128906,-0.812011719,0.562988281,8.056640625,0.366210938,-0.122070313,2.24E+08
192.168.43.70,-0.341308594,-0.821777344,0.538085938,0.122070313,-1.220703125,-4.150390625,2.24E+08
192.168.43.70,-0.291992188,-0.853515625,0.522460938,-1.098632813,-3.967285156,-6.408691406,2.24E+08
192.168.43.70,-0.256835938,-0.859863281,0.529785156,2.990722656,-2.685546875,-3.41796875,2.24E+08
192.168.43.70,-0.301757813,-0.832519531,0.543457031,4.150390625,-0.061035156,0.366210938,2.24E+08
192.168.43.70,-0.312988281,-0.825683594,0.547851563,0.732421875,-1.46484375,-0.183105469,2.24E+08
192.168.43.70,-0.291992188,-0.84765625,0.530761719,-1.159667969,-2.685546875,-1.831054688,2.24E+08
192.168.43.70,-0.296875,-0.854003906,0.523925781,1.46484375,-1.281738281,-2.075195313,2.24E+08
192.168.43.70,-0.282714844,-0.847167969,0.538085938,3.967285156,-1.953125,-0.48828125,2.24E+08
192.168.43.70,-0.3046875,-0.839355469,0.538574219,3.295898438,-3.051757813,0.793457031,2.24E+08
192.168.43.70,-0.295410156,-0.839355469,0.541992188,3.479003906,-3.356933594,-0.671386719,2.24E+08
192.168.43.70,-0.294921875,-0.833496094,0.545410156,4.211425781,-2.014160156,-1.708984375,2.24E+08
192.168.43.70,-0.28515625,-0.842773438,0.54296875,3.601074219,-2.685546875,0,2.24E+08
192.168.43.70,-0.294921875,-0.84765625,0.538574219,2.746582031,-4.39453125,1.892089844,2.24E+08
192.168.43.70,-0.288574219,-0.83984375,0.542480469,4.150390625,-4.211425781,1.46484375,2.24E+08
192.168.43.70,-0.301757813,-0.827148438,0.551757813,5.737304688,-1.831054688,0.427246094,2.24E+08
192.168.43.70,-0.293945313,-0.840820313,0.546875,5.065917969,-2.319335938,0.732421875,2.24E+08
192.168.43.70,-0.287597656,-0.846191406,0.544921875,5.615234375,-3.479003906,1.770019531,2.24E+08
192.168.43.70,-0.293457031,-0.836425781,0.552246094,7.629394531,-2.868652344,2.014160156,2.24E+08
192.168.43.70,-0.282714844,-0.825195313,0.564941406,8.728027344,-1.586914063,2.197265625,2.24E+08
192.168.43.70,-0.307617188,-0.828613281,0.561035156,7.446289063,-0.48828125,2.746582031,2.24E+08
192.168.43.70,-0.297363281,-0.834472656,0.558105469,6.408691406,-3.234863281,2.9296875,2.24E+08
192.168.43.70,-0.292480469,-0.830078125,0.562988281,6.8359375,-4.089355469,2.9296875,2.24E+08
192.168.43.70,-0.291015625,-0.823242188,0.569824219,8.117675781,-3.173828125,3.173828125,2.24E+08
192.168.43.70,-0.296386719,-0.833496094,0.565917969,8.850097656,-2.685546875,3.90625,2.24E+08
192.168.43.70,-0.297851563,-0.823730469,0.573730469,9.399414063,-3.356933594,4.577636719,2.24E+08
192.168.43.70,-0.286621094,-0.822753906,0.577148438,9.27734375,-3.723144531,5.432128906,2.24E+08
192.168.43.70,-0.310546875,-0.808105469,0.580566406,9.765625,-1.953125,5.004882813,2.24E+08
192.168.43.70,-0.312988281,-0.814941406,0.580566406,9.216308594,-2.746582031,3.112792969,2.24E+08
192.168.43.70,-0.294921875,-0.819824219,0.585449219,8.850097656,-4.516601563,2.502441406,2.24E+08
192.168.43.70,-0.287597656,-0.819335938,0.584960938,9.521484375,-4.211425781,3.90625,2.24E+08
192.168.43.70,-0.301269531,-0.809082031,0.593261719,10.25390625,-2.9296875,4.8828125,2.24E+08
192.168.43.70,-0.310546875,-0.805664063,0.596679688,10.25390625,-3.295898438,4.699707031,2.24E+08
192.168.43.70,-0.307617188,-0.801269531,0.602050781,9.582519531,-4.333496094,3.479003906,2.24E+08
192.168.43.70,-0.293457031,-0.808105469,0.602050781,9.521484375,-4.638671875,2.9296875,2.24E+08
192.168.43.70,-0.30859375,-0.800292969,0.60546875,10.00976563,-3.479003906,3.112792969,2.24E+08
192.168.43.70,-0.303710938,-0.809082031,0.6015625,9.704589844,-4.455566406,3.479003906,2.24E+08
192.168.43.70,-0.290527344,-0.797363281,0.615234375,11.04736328,-4.272460938,3.601074219,2.24E+08
192.168.43.70,-0.318847656,-0.774414063,0.625488281,10.25390625,-2.807617188,3.295898438,2.24E+08
192.168.43.70,-0.305175781,-0.801269531,0.618164063,7.141113281,-5.432128906,3.356933594,2.24E+08
192.168.43.70,-0.293945313,-0.801757813,0.611328125,7.995605469,-6.042480469,3.295898438,2.24E+08
192.168.43.70,-0.3046875,-0.784667969,0.625488281,10.49804688,-3.90625,3.41796875,2.24E+08
192.168.43.70,-0.310058594,-0.775390625,0.634765625,9.765625,-3.967285156,3.41796875,2.24E+08
192.168.43.70,-0.301757813,-0.790527344,0.627929688,7.568359375,-5.493164063,3.601074219,2.24E+08
192.168.43.70,-0.301757813,-0.795898438,0.623535156,8.178710938,-5.37109375,3.90625,2.24E+08
192.168.43.70,-0.301269531,-0.777832031,0.641113281,10.43701172,-4.577636719,3.90625,2.24E+08
192.168.43.70,-0.317871094,-0.767089844,0.646972656,9.094238281,-4.211425781,3.845214844,2.24E+08
192.168.43.70,-0.307617188,-0.783691406,0.641601563,6.774902344,-6.530761719,3.601074219,2.24E+08
192.168.43.70,-0.291503906,-0.779785156,0.641113281,7.202148438,-7.202148438,3.540039063,2.25E+08
192.168.43.70,-0.293945313,-0.785644531,0.643066406,8.605957031,-4.638671875,3.845214844,2.25E+08
192.168.43.70,-0.325195313,-0.762207031,0.651855469,10.25390625,-3.662109375,3.967285156,2.25E+08
192.168.43.70,-0.3125,-0.76953125,0.656738281,8.911132813,-6.774902344,3.540039063,2.25E+08
192.168.43.70,-0.292480469,-0.766601563,0.656738281,8.239746094,-8.178710938,3.112792969,2.25E+08
192.168.43.70,-0.291015625,-0.785644531,0.650390625,8.422851563,-5.737304688,3.723144531,2.25E+08
192.168.43.70,-0.311035156,-0.76171875,0.664550781,11.47460938,-4.638671875,4.760742188,2.25E+08
192.168.43.70,-0.313964844,-0.748046875,0.672851563,10.49804688,-6.164550781,4.211425781,2.25E+08
192.168.43.70,-0.307128906,-0.758789063,0.671386719,8.30078125,-7.385253906,3.723144531,2.25E+08
192.168.43.70,-0.295410156,-0.763183594,0.667480469,7.507324219,-8.422851563,4.638671875,2.25E+08
192.168.43.70,-0.295410156,-0.774902344,0.666015625,9.094238281,-6.591796875,5.065917969,2.25E+08
192.168.43.70,-0.322265625,-0.742675781,0.677734375,12.45117188,-6.042480469,4.8828125,2.25E+08
192.168.43.70,-0.297851563,-0.751464844,0.687011719,11.35253906,-8.972167969,5.065917969,2.25E+08
192.168.43.70,-0.2890625,-0.743164063,0.690917969,10.86425781,-7.873535156,5.676269531,2.25E+08
192.168.43.70,-0.317382813,-0.747070313,0.682617188,9.948730469,-5.798339844,5.554199219,2.25E+08
192.168.43.70,-0.306152344,-0.763671875,0.680664063,11.04736328,-7.751464844,5.249023438,2.25E+08
192.168.43.70,-0.298828125,-0.727539063,0.701660156,14.89257813,-7.568359375,4.516601563,2.25E+08
192.168.43.70,-0.302734375,-0.723144531,0.710449219,13.36669922,-5.676269531,4.577636719,2.25E+08
192.168.43.70,-0.318847656,-0.733398438,0.700683594,10.68115234,-7.019042969,5.676269531,2.25E+08
192.168.43.70,-0.290039063,-0.75,0.693847656,11.10839844,-11.65771484,6.774902344,2.25E+08
192.168.43.70,-0.270507813,-0.738769531,0.709472656,16.72363281,-7.934570313,7.507324219,2.25E+08
192.168.43.70,-0.344238281,-0.688476563,0.725097656,18.73779297,-2.685546875,7.8125,2.25E+08
192.168.43.70,-0.330566406,-0.707519531,0.72265625,13.12255859,-11.35253906,6.713867188,2.25E+08
192.168.43.70,-0.290039063,-0.725097656,0.73046875,13.54980469,-18.06640625,2.319335938,2.25E+08
192.168.43.70,-0.256835938,-0.715820313,0.7421875,14.89257813,-12.63427734,4.699707031,2.25E+08
192.168.43.70,-0.307617188,-0.695800781,0.7265625,14.70947266,-6.34765625,5.981445313,2.25E+08
192.168.43.70,-0.340820313,-0.695800781,0.729980469,15.74707031,-13.18359375,1.525878906,2.25E+08
192.168.43.70,-0.255859375,-0.720214844,0.770019531,16.47949219,-17.88330078,1.586914063,2.25E+08
192.168.43.70,-0.270019531,-0.685058594,0.760253906,15.99121094,-7.080078125,4.455566406,2.25E+08
192.168.43.70,-0.299804688,-0.6875,0.763183594,14.16015625,-2.624511719,4.333496094,2.25E+08
192.168.43.70,-0.289550781,-0.682128906,0.766113281,13.97705078,-4.211425781,4.089355469,2.25E+08
192.168.43.70,-0.274902344,-0.688964844,0.765136719,13.61083984,-2.502441406,4.943847656,2.25E+08
192.168.43.70,-0.309570313,-0.681640625,0.770507813,14.46533203,-0.183105469,5.798339844,2.25E+08
192.168.43.70,-0.311035156,-0.666503906,0.780761719,14.22119141,-4.943847656,4.943847656,2.25E+08
192.168.43.70,-0.283691406,-0.664550781,0.784667969,12.51220703,-6.652832031,3.356933594,2.25E+08
192.168.43.70,-0.296386719,-0.671875,0.780273438,12.08496094,-2.258300781,1.037597656,2.25E+08
192.168.43.70,-0.30078125,-0.674316406,0.78125,13.79394531,-0.854492188,-0.793457031,2.25E+08
192.168.43.70,-0.294433594,-0.6640625,0.798339844,13.73291016,-1.586914063,1.647949219,2.25E+08
192.168.43.70,-0.290527344,-0.646484375,0.802246094,11.96289063,-2.868652344,3.540039063,2.25E+08
192.168.43.70,-0.287109375,-0.654785156,0.794433594,9.582519531,-2.685546875,2.9296875,2.25E+08
192.168.43.70,-0.287597656,-0.664550781,0.797851563,9.094238281,0.610351563,3.356933594,2.25E+08
192.168.43.70,-0.311035156,-0.655273438,0.793457031,10.37597656,2.9296875,2.502441406,2.25E+08
192.168.43.70,-0.310546875,-0.646484375,0.803710938,11.23046875,0.366210938,1.281738281,2.25E+08
192.168.43.70,-0.291503906,-0.639160156,0.810546875,10.25390625,-2.319335938,0.854492188,2.25E+08
192.168.43.70,-0.283203125,-0.643066406,0.814941406,8.666992188,-0.671386719,1.037597656,2.25E+08
192.168.43.70,-0.302734375,-0.641601563,0.812011719,7.873535156,2.380371094,1.647949219,2.25E+08
192.168.43.70,-0.312988281,-0.642089844,0.806640625,7.263183594,0.48828125,1.708984375,2.25E+08
192.168.43.70,-0.297851563,-0.640625,0.814453125,7.873535156,-3.051757813,1.403808594,2.25E+08
192.168.43.70,-0.296875,-0.640136719,0.814941406,8.483886719,-2.624511719,0,2.25E+08
192.168.43.70,-0.287597656,-0.644042969,0.814941406,8.850097656,-0.671386719,0.732421875,2.25E+08
192.168.43.70,-0.302734375,-0.634277344,0.816894531,10.25390625,1.525878906,0.732421875,2.25E+08
192.168.43.70,-0.303222656,-0.625976563,0.826171875,10.62011719,0.732421875,0.48828125,2.26E+08
192.168.43.70,-0.294921875,-0.626953125,0.830566406,9.643554688,0.793457031,1.037597656,2.26E+08
192.168.43.70,-0.321777344,-0.627929688,0.82421875,8.850097656,2.014160156,2.746582031,2.26E+08
192.168.43.70,-0.30859375,-0.619628906,0.823730469,9.033203125,-2.746582031,3.662109375,2.26E+08
192.168.43.70,-0.284667969,-0.61328125,0.835449219,8.850097656,-5.065917969,1.46484375,2.26E+08
192.168.43.70,-0.300292969,-0.614257813,0.8359375,7.690429688,-1.220703125,0.549316406,2.26E+08
192.168.43.70,-0.305175781,-0.618164063,0.830566406,7.019042969,-0.366210938,-0.122070313,2.26E+08
192.168.43.70,-0.300292969,-0.620117188,0.834472656,7.141113281,-1.953125,0.244140625,2.26E+08
192.168.43.70,-0.307128906,-0.611816406,0.836914063,7.629394531,-3.234863281,0.915527344,2.26E+08
192.168.43.70,-0.288085938,-0.608886719,0.845703125,7.873535156,-3.662109375,0.915527344,2.26E+08
192.168.43.70,-0.298339844,-0.60546875,0.841308594,7.507324219,-0.427246094,0.48828125,2.26E+08
192.168.43.70,-0.306640625,-0.608886719,0.837890625,7.019042969,-0.427246094,0.48828125,2.26E+08
192.168.43.70,-0.295898438,-0.603027344,0.848632813,7.629394531,-2.563476563,0.610351563,2.26E+08
192.168.43.70,-0.293457031,-0.599121094,0.849609375,7.690429688,-1.770019531,0.122070313,2.26E+08
192.168.43.70,-0.295410156,-0.6015625,0.855957031,6.896972656,0.122070313,0.854492188,2.26E+08
192.168.43.70,-0.316894531,-0.592285156,0.8515625,5.920410156,0.122070313,1.037597656,2.26E+08
192.168.43.70,-0.294921875,-0.599121094,0.852050781,5.310058594,-2.380371094,0.549316406,2.26E+08
192.168.43.70,-0.297851563,-0.59765625,0.848632813,5.676269531,-1.525878906,0.732421875,2.26E+08
192.168.43.70,-0.298828125,-0.599121094,0.848632813,6.34765625,-1.586914063,1.037597656,2.26E+08
192.168.43.70,-0.296875,-0.598144531,0.860839844,7.263183594,-0.793457031,0.915527344,2.26E+08
192.168.43.70,-0.302734375,-0.589355469,0.856933594,7.751464844,0.366210938,1.037597656,2.26E+08
192.168.43.70,-0.30859375,-0.584960938,0.860839844,7.8125,0.061035156,0.671386719,2.26E+08
192.168.43.70,-0.303710938,-0.58203125,0.8671875,7.202148438,-2.075195313,0.305175781,2.26E+08
192.168.43.70,-0.286621094,-0.578125,0.861816406,6.530761719,-3.112792969,0.732421875,2.26E+08
192.168.43.70,-0.276855469,-0.58984375,0.863769531,6.8359375,0,0.9765625,2.26E+08
192.168.43.70,-0.299804688,-0.588378906,0.86328125,8.056640625,4.089355469,1.647949219,2.26E+08
192.168.43.70,-0.3125,-0.573242188,0.8671875,9.155273438,3.051757813,1.892089844,2.26E+08
192.168.43.70,-0.314941406,-0.557128906,0.876464844,7.8125,-0.549316406,1.159667969,2.26E+08
192.168.43.70,-0.299804688,-0.568847656,0.877929688,5.310058594,-2.075195313,0.427246094,2.26E+08
192.168.43.70,-0.288085938,-0.573242188,0.877929688,4.943847656,-0.610351563,1.098632813,2.26E+08
192.168.43.70,-0.297851563,-0.569824219,0.865234375,5.249023438,1.46484375,1.647949219,2.26E+08
192.168.43.70,-0.302246094,-0.57421875,0.869140625,5.065917969,0.183105469,2.990722656,2.26E+08
192.168.43.70,-0.291015625,-0.575195313,0.874511719,6.591796875,-0.549316406,3.90625,2.26E+08
192.168.43.70,-0.299804688,-0.558105469,0.887695313,7.568359375,1.159667969,4.333496094,2.26E+08
192.168.43.70,-0.305664063,-0.553710938,0.878417969,6.103515625,3.479003906,3.90625,2.26E+08
192.168.43.70,-0.296386719,-0.564941406,0.878417969,5.798339844,5.432128906,4.028320313,2.26E+08
192.168.43.70,-0.320800781,-0.555175781,0.87890625,6.408691406,5.676269531,5.310058594,2.26E+08
192.168.43.70,-0.319335938,-0.549316406,0.878417969,5.37109375,1.831054688,6.34765625,2.26E+08
192.168.43.70,-0.300292969,-0.551269531,0.891601563,4.8828125,0.9765625,6.225585938,2.26E+08
192.168.43.70,-0.301269531,-0.555664063,0.879882813,4.028320313,4.943847656,6.896972656,2.26E+08
192.168.43.70,-0.302734375,-0.5625,0.887207031,5.187988281,8.117675781,7.873535156,2.26E+08
192.168.43.70,-0.3515625,-0.536132813,0.884277344,6.652832031,10.19287109,7.934570313,2.26E+08
192.168.43.70,-0.373535156,-0.521484375,0.883300781,4.638671875,4.150390625,5.432128906,2.26E+08
192.168.43.70,-0.314453125,-0.5390625,0.887695313,1.037597656,-4.089355469,4.821777344,2.26E+08
192.168.43.70,-0.297363281,-0.546875,0.895507813,-0.48828125,-2.624511719,7.568359375,2.26E+08
192.168.43.70,-0.331542969,-0.544921875,0.869628906,-0.732421875,2.380371094,8.7890625,2.26E+08
192.168.43.70,-0.323730469,-0.561523438,0.874511719,2.258300781,3.356933594,7.202148438,2.26E+08
192.168.43.70,-0.333984375,-0.547851563,0.884277344,6.042480469,4.516601563,6.652832031,2.26E+08
192.168.43.70,-0.334960938,-0.528808594,0.879882813,7.202148438,4.150390625,6.408691406,2.26E+08
192.168.43.70,-0.315429688,-0.540039063,0.887207031,6.34765625,4.150390625,7.32421875,2.26E+08
192.168.43.70,-0.340820313,-0.528808594,0.893554688,7.019042969,7.507324219,9.826660156,2.27E+08
192.168.43.70,-0.385253906,-0.510253906,0.876464844,6.408691406,7.8125,9.521484375,2.27E+08
192.168.43.70,-0.334960938,-0.541503906,0.885742188,5.004882813,1.647949219,10.13183594,2.27E+08
192.168.43.70,-0.311035156,-0.540527344,0.900390625,7.873535156,3.967285156,12.14599609,2.27E+08
192.168.43.70,-0.383300781,-0.501953125,0.875488281,9.643554688,11.10839844,12.08496094,2.27E+08
192.168.43.70,-0.377441406,-0.509277344,0.890136719,8.911132813,7.8125,10.31494141,2.27E+08
192.168.43.70,-0.364746094,-0.508789063,0.892578125,8.239746094,5.432128906,8.605957031,2.27E+08
192.168.43.70,-0.376464844,-0.508300781,0.884277344,8.483886719,5.981445313,5.615234375,2.27E+08
192.168.43.70,-0.369628906,-0.51171875,0.883789063,7.568359375,4.760742188,6.164550781,2.27E+08
192.168.43.70,-0.336425781,-0.520019531,0.904296875,7.995605469,4.39453125,8.544921875,2.27E+08
192.168.43.70,-0.398925781,-0.470703125,0.907226563,9.033203125,9.033203125,10.25390625,2.27E+08
192.168.43.70,-0.448730469,-0.453613281,0.876464844,3.173828125,4.760742188,7.385253906,2.27E+08
192.168.43.70,-0.375488281,-0.515136719,0.877929688,-1.220703125,-4.638671875,4.577636719,2.27E+08
192.168.43.70,-0.320800781,-0.543457031,0.920410156,3.662109375,-2.380371094,5.859375,2.27E+08
192.168.43.70,-0.407714844,-0.450195313,0.903320313,8.972167969,6.896972656,6.958007813,2.27E+08
192.168.43.70,-0.462402344,-0.434570313,0.880859375,3.173828125,3.784179688,1.647949219,2.27E+08
192.168.43.70,-0.355957031,-0.522460938,0.892089844,-3.234863281,-7.32421875,-0.549316406,2.27E+08
192.168.43.70,-0.319824219,-0.542480469,0.911621094,1.46484375,-2.624511719,3.723144531,2.27E+08
192.168.43.70,-0.43359375,-0.458496094,0.899902344,7.019042969,6.469726563,5.187988281,2.27E+08
192.168.43.70,-0.447265625,-0.434570313,0.879394531,3.540039063,-0.183105469,-0.061035156,2.27E+08
192.168.43.70,-0.333007813,-0.528320313,0.892089844,-2.319335938,-7.690429688,-0.610351563,2.27E+08
192.168.43.70,-0.310058594,-0.56640625,0.902832031,5.981445313,1.770019531,4.150390625,2.27E+08
192.168.43.70,-0.418457031,-0.465820313,0.914550781,18.5546875,13.42773438,7.934570313,2.27E+08
192.168.43.70,-0.48046875,-0.406738281,0.893554688,13.61083984,6.896972656,5.981445313,2.27E+08
192.168.43.70,-0.403808594,-0.461425781,0.899902344,3.845214844,-5.187988281,4.638671875,2.27E+08
192.168.43.70,-0.336425781,-0.517089844,0.903808594,4.8828125,-3.295898438,3.845214844,2.27E+08
192.168.43.70,-0.364257813,-0.482421875,0.914550781,13.00048828,6.530761719,2.624511719,2.27E+08
192.168.43.70,-0.465332031,-0.421875,0.899414063,14.03808594,11.47460938,0.305175781,2.27E+08
192.168.43.70,-0.432128906,-0.436035156,0.909667969,5.493164063,-0.915527344,-3.356933594,2.27E+08
192.168.43.70,-0.377441406,-0.457519531,0.919921875,-0.549316406,-6.8359375,-2.380371094,2.27E+08
192.168.43.70,-0.376953125,-0.460449219,0.908203125,-2.075195313,-5.187988281,-0.732421875,2.27E+08
192.168.43.70,-0.375488281,-0.461914063,0.912597656,-2.258300781,-2.9296875,0,2.27E+08
192.168.43.70,-0.401855469,-0.465820313,0.916503906,-1.403808594,0.9765625,-0.122070313,2.27E+08
192.168.43.70,-0.408691406,-0.44921875,0.890136719,-0.366210938,0.48828125,-0.122070313,2.27E+08
192.168.43.70,-0.351074219,-0.494628906,0.901855469,-0.48828125,0.244140625,-0.48828125,2.27E+08
192.168.43.70,-0.37109375,-0.494628906,0.912109375,5.126953125,7.568359375,2.258300781,2.27E+08
192.168.43.70,-0.444824219,-0.431640625,0.911621094,8.422851563,8.666992188,4.577636719,2.27E+08
192.168.43.70,-0.447753906,-0.408203125,0.897949219,2.258300781,0.427246094,4.699707031,2.27E+08
192.168.43.70,-0.354492188,-0.486816406,0.908203125,-4.699707031,-5.187988281,2.807617188,2.27E+08
192.168.43.70,-0.359863281,-0.512207031,0.915039063,0.305175781,2.563476563,5.310058594,2.27E+08
192.168.43.70,-0.454589844,-0.428222656,0.907714844,8.422851563,8.178710938,5.859375,2.27E+08
192.168.43.70,-0.4609375,-0.392578125,0.901855469,4.516601563,1.342773438,0.732421875,2.27E+08
192.168.43.70,-0.361816406,-0.474609375,0.913085938,-4.455566406,-5.004882813,-1.525878906,2.27E+08
192.168.43.70,-0.362304688,-0.499023438,0.922363281,-0.732421875,1.46484375,2.685546875,2.27E+08
192.168.43.70,-0.441894531,-0.421875,0.902832031,4.577636719,5.37109375,6.225585938,2.27E+08
192.168.43.70,-0.434570313,-0.426757813,0.906738281,-1.037597656,-0.305175781,4.699707031,2.27E+08
192.168.43.70,-0.416992188,-0.459960938,0.904785156,-3.295898438,-1.647949219,2.075195313,2.27E+08
192.168.43.70,-0.387695313,-0.467285156,0.913085938,-0.183105469,-0.9765625,0.610351563,2.27E+08
192.168.43.70,-0.416503906,-0.447265625,0.913085938,1.342773438,1.892089844,1.892089844,2.27E+08
192.168.43.70,-0.44921875,-0.433105469,0.904296875,0.061035156,0.122070313,1.281738281,2.27E+08
192.168.43.70,-0.409667969,-0.442871094,0.907714844,-2.502441406,-4.516601563,-1.159667969,2.28E+08
192.168.43.70,-0.387207031,-0.463867188,0.915527344,-3.295898438,-3.173828125,-0.915527344,2.28E+08
192.168.43.70,-0.428710938,-0.447265625,0.900878906,-0.9765625,-0.305175781,-0.732421875,2.28E+08
192.168.43.70,-0.405273438,-0.455566406,0.906738281,-1.647949219,-3.295898438,-1.708984375,2.28E+08
192.168.43.70,-0.386230469,-0.467285156,0.91015625,-0.732421875,-1.770019531,-1.159667969,2.28E+08
192.168.43.70,-0.396484375,-0.459472656,0.908691406,1.831054688,1.708984375,-0.244140625,2.28E+08
192.168.43.70,-0.424316406,-0.4453125,0.907226563,3.051757813,2.868652344,-0.183105469,2.28E+08
192.168.43.70,-0.423339844,-0.44140625,0.90625,2.136230469,0.427246094,-0.9765625,2.28E+08
192.168.43.70,-0.401367188,-0.455566406,0.913574219,0.610351563,-1.770019531,-1.953125,2.28E+08
192.168.43.70,-0.404785156,-0.455566406,0.913574219,1.403808594,-0.549316406,-2.319335938,2.28E+08
192.168.43.70,-0.420898438,-0.442382813,0.907226563,1.953125,0,-2.9296875,2.28E+08
192.168.43.70,-0.421875,-0.443847656,0.911621094,1.159667969,-1.037597656,-4.760742188,2.28E+08
192.168.43.70,-0.413574219,-0.440429688,0.909667969,0.48828125,-3.295898438,-6.286621094,2.28E+08
192.168.43.70,-0.380859375,-0.459960938,0.915527344,-1.586914063,-4.455566406,-5.676269531,2.28E+08
192.168.43.70,-0.392578125,-0.469726563,0.906738281,-0.9765625,-1.281738281,-4.211425781,2.28E+08
192.168.43.70,-0.399414063,-0.459960938,0.909667969,2.502441406,0.549316406,-6.164550781,2.28E+08
192.168.43.70,-0.383789063,-0.453613281,0.903320313,4.699707031,2.44140625,-8.30078125,2.28E+08
192.168.43.70,-0.393066406,-0.465820313,0.917480469,6.34765625,6.408691406,-8.972167969,2.28E+08
192.168.43.70,-0.448242188,-0.418945313,0.917480469,7.934570313,6.8359375,-9.765625,2.28E+08
192.168.43.70,-0.417480469,-0.415039063,0.913085938,0.610351563,-1.46484375,-11.04736328,2.28E+08
192.168.43.70,-0.366210938,-0.45703125,0.930664063,-6.408691406,-4.577636719,-9.887695313,2.28E+08
192.168.43.70,-0.402832031,-0.435546875,0.924804688,-7.8125,-1.892089844,-8.361816406,2.28E+08
192.168.43.70,-0.419433594,-0.426269531,0.904296875,-13.12255859,-4.943847656,-8.117675781,2.28E+08
192.168.43.70,-0.389160156,-0.465332031,0.909179688,-19.47021484,-9.582519531,-7.934570313,2.28E+08
192.168.43.70,-0.374511719,-0.484375,0.909667969,-20.08056641,-9.826660156,-8.239746094,2.28E+08
192.168.43.70,-0.36328125,-0.477539063,0.909179688,-18.06640625,-7.202148438,-8.422851563,2.28E+08
192.168.43.70,-0.377441406,-0.473144531,0.906738281,-18.12744141,-3.173828125,-9.155273438,2.28E+08
192.168.43.70,-0.389160156,-0.479492188,0.896972656,-20.81298828,-3.967285156,-9.887695313,2.28E+08
192.168.43.70,-0.360351563,-0.500488281,0.897949219,-23.92578125,-7.141113281,-8.117675781,2.28E+08
192.168.43.70,-0.348144531,-0.506347656,0.8984375,-24.53613281,-5.126953125,-7.446289063,2.28E+08
192.168.43.70,-0.366699219,-0.513671875,0.889160156,-24.90234375,-1.708984375,-7.995605469,2.28E+08
192.168.43.70,-0.368164063,-0.524414063,0.879882813,-25.51269531,-2.563476563,-7.32421875,2.28E+08
192.168.43.70,-0.346191406,-0.532226563,0.872558594,-25.32958984,-3.90625,-5.920410156,2.28E+08
192.168.43.70,-0.340820313,-0.534667969,0.886230469,-24.90234375,-1.770019531,-4.943847656,2.28E+08
192.168.43.70,-0.370605469,-0.541015625,0.858886719,-25.81787109,1.098632813,-5.37109375,2.28E+08
192.168.43.70,-0.352050781,-0.567871094,0.860839844,-24.84130859,-0.671386719,-6.530761719,2.28E+08
192.168.43.70,-0.364746094,-0.567382813,0.857910156,-22.21679688,0.793457031,-6.408691406,2.28E+08
192.168.43.70,-0.358886719,-0.561523438,0.850585938,-20.44677734,0.244140625,-7.873535156,2.28E+08
192.168.43.70,-0.347167969,-0.564941406,0.857421875,-21.05712891,-0.732421875,-7.507324219,2.28E+08
192.168.43.70,-0.3515625,-0.576660156,0.840820313,-22.94921875,-0.549316406,-6.469726563,2.28E+08
192.168.43.70,-0.349121094,-0.594238281,0.833007813,-22.64404297,-1.220703125,-5.737304688,2.28E+08
192.168.43.70,-0.338378906,-0.600585938,0.839355469,-19.77539063,-0.183105469,-5.37109375,2.28E+08
192.168.43.70,-0.340820313,-0.599121094,0.826660156,-17.578125,2.380371094,-5.676269531,2.28E+08
192.168.43.70,-0.350097656,-0.60546875,0.828613281,-15.86914063,3.356933594,-5.859375,2.28E+08
192.168.43.70,-0.355957031,-0.599121094,0.828125,-15.25878906,2.746582031,-5.615234375,2.28E+08
192.168.43.70,-0.34375,-0.608886719,0.817382813,-16.23535156,1.586914063,-6.042480469,2.28E+08
192.168.43.70,-0.338867188,-0.615234375,0.819335938,-15.99121094,1.46484375,-5.859375,2.28E+08
192.168.43.70,-0.363769531,-0.604492188,0.813476563,-15.80810547,2.807617188,-5.920410156,2.28E+08
192.168.43.70,-0.354980469,-0.627929688,0.802246094,-16.05224609,1.037597656,-8.239746094,2.28E+08
192.168.43.70,-0.3203125,-0.640625,0.8125,-13.91601563,-0.061035156,-8.666992188,2.28E+08
192.168.43.70,-0.326171875,-0.619140625,0.80859375,-13.00048828,3.723144531,-7.32421875,2.29E+08
192.168.43.70,-0.336914063,-0.627441406,0.801757813,-14.46533203,5.493164063,-5.615234375,2.29E+08
192.168.43.70,-0.340820313,-0.637207031,0.796386719,-15.56396484,4.943847656,-4.39453125,2.29E+08
192.168.43.70,-0.342285156,-0.641601563,0.791015625,-15.50292969,5.065917969,-4.333496094,2.29E+08
192.168.43.70,-0.34765625,-0.642089844,0.790527344,-15.25878906,5.126953125,-5.249023438,2.29E+08
192.168.43.70,-0.34765625,-0.641601563,0.784179688,-15.625,4.699707031,-6.042480469,2.29E+08
192.168.43.70,-0.340332031,-0.651855469,0.781738281,-16.05224609,4.455566406,-6.8359375,2.29E+08
192.168.43.70,-0.329101563,-0.664550781,0.778320313,-16.23535156,4.577636719,-6.591796875,2.29E+08
192.168.43.70,-0.338378906,-0.660644531,0.765625,-15.56396484,6.164550781,-5.798339844,2.29E+08
192.168.43.70,-0.353027344,-0.666015625,0.763671875,-15.86914063,6.469726563,-5.615234375,2.29E+08
192.168.43.70,-0.344238281,-0.667480469,0.762695313,-16.23535156,4.821777344,-5.310058594,2.29E+08
192.168.43.70,-0.335449219,-0.666503906,0.763183594,-15.99121094,4.211425781,-5.859375,2.29E+08
192.168.43.70,-0.340332031,-0.677734375,0.754394531,-16.84570313,4.516601563,-6.164550781,2.29E+08
192.168.43.70,-0.3359375,-0.680175781,0.748046875,-17.45605469,3.845214844,-5.981445313,2.29E+08
192.168.43.70,-0.326660156,-0.689453125,0.741210938,-17.51708984,3.723144531,-5.126953125,2.29E+08
192.168.43.70,-0.345703125,-0.682128906,0.740234375,-16.90673828,5.004882813,-4.577636719,2.29E+08
192.168.43.70,-0.34375,-0.698242188,0.726074219,-17.76123047,4.211425781,-5.126953125,2.29E+08
192.168.43.70,-0.335449219,-0.702148438,0.723632813,-16.66259766,3.723144531,-5.37109375,2.29E+08
192.168.43.70,-0.335449219,-0.699707031,0.724121094,-16.29638672,4.272460938,-5.187988281,2.29E+08
192.168.43.70,-0.344726563,-0.698730469,0.722167969,-16.90673828,5.37109375,-5.493164063,2.29E+08
192.168.43.70,-0.336914063,-0.710449219,0.715820313,-18.18847656,4.699707031,-5.859375,2.29E+08
192.168.43.70,-0.342285156,-0.719726563,0.698242188,-18.5546875,4.150390625,-5.798339844,2.29E+08
192.168.43.70,-0.335449219,-0.723632813,0.696289063,-17.21191406,3.356933594,-5.187988281,2.29E+08
192.168.43.70,-0.329101563,-0.721679688,0.69140625,-15.68603516,4.272460938,-5.432128906,2.29E+08
192.168.43.70,-0.330078125,-0.731445313,0.695800781,-14.83154297,6.103515625,-5.554199219,2.29E+08
192.168.43.70,-0.341796875,-0.725097656,0.69140625,-15.68603516,6.8359375,-5.065917969,2.29E+08
192.168.43.70,-0.321289063,-0.741699219,0.680175781,-16.47949219,6.896972656,-4.516601563,2.29E+08
192.168.43.70,-0.348632813,-0.734375,0.673828125,-14.95361328,10.07080078,-5.310058594,2.29E+08
192.168.43.70,-0.355957031,-0.731445313,0.681152344,-14.58740234,9.399414063,-7.32421875,2.29E+08
192.168.43.70,-0.354003906,-0.729980469,0.679199219,-17.76123047,6.469726563,-8.666992188,2.29E+08
192.168.43.70,-0.325195313,-0.754882813,0.663085938,-20.32470703,4.333496094,-8.30078125,2.29E+08
192.168.43.70,-0.323730469,-0.755859375,0.65234375,-20.14160156,5.554199219,-7.568359375,2.29E+08
192.168.43.70,-0.327148438,-0.755371094,0.651367188,-19.16503906,7.32421875,-8.056640625,2.29E+08
192.168.43.70,-0.336914063,-0.7578125,0.647949219,-18.92089844,8.728027344,-9.033203125,2.29E+08
192.168.43.70,-0.33203125,-0.768066406,0.643554688,-19.28710938,8.605957031,-9.521484375,2.29E+08
192.168.43.70,-0.327636719,-0.774414063,0.634765625,-19.77539063,8.483886719,-9.033203125,2.29E+08
192.168.43.70,-0.326660156,-0.778320313,0.626953125,-19.89746094,8.544921875,-7.568359375,2.29E+08
192.168.43.70,-0.3359375,-0.7890625,0.611816406,-18.98193359,7.873535156,-7.751464844,2.29E+08
192.168.43.70,-0.319335938,-0.795898438,0.604980469,-17.76123047,7.629394531,-7.507324219,2.29E+08
192.168.43.70,-0.327148438,-0.791015625,0.604980469,-16.66259766,9.521484375,-6.896972656,2.29E+08
