Wearable-2,Ax,Ay,Az,Gx,Gy,Gz,Sensor time
192.168.43.159,-0.047363281,0.980957031,-0.030761719,2.075195313,-1.037597656,-0.427246094,1.86E+08
192.168.43.159,-0.035644531,0.985351563,-0.043945313,2.319335938,-1.647949219,-0.366210938,1.86E+08
192.168.43.159,-0.025390625,0.98828125,-0.033691406,1.953125,-0.915527344,-0.48828125,1.86E+08
192.168.43.159,-0.041015625,0.983398438,-0.036132813,1.708984375,-0.122070313,-0.48828125,1.86E+08
192.168.43.159,-0.053222656,0.985351563,-0.040527344,1.770019531,-0.244140625,-0.244140625,1.86E+08
192.168.43.159,-0.041015625,0.985351563,-0.041015625,1.525878906,-1.708984375,-0.244140625,1.86E+08
192.168.43.159,-0.038085938,0.984863281,-0.038085938,0.9765625,-1.708984375,-0.061035156,1.86E+08
192.168.43.159,-0.04296875,0.984863281,-0.043945313,0.671386719,-0.610351563,0.244140625,1.86E+08
192.168.43.159,-0.043457031,0.985839844,-0.042480469,0.244140625,-0.610351563,0.427246094,1.86E+08
192.168.43.159,-0.037597656,0.984863281,-0.028320313,-0.061035156,-1.037597656,0.48828125,1.86E+08
192.168.43.159,-0.044921875,0.979980469,-0.034667969,0,-1.281738281,0.732421875,1.86E+08
192.168.43.159,-0.038574219,0.981933594,-0.040039063,0,-1.098632813,0.793457031,1.86E+08
192.168.43.159,-0.028320313,0.982421875,-0.033203125,-0.122070313,-0.549316406,0.610351563,1.86E+08
192.168.43.159,-0.028808594,0.985351563,-0.029296875,0,-0.427246094,0.48828125,1.86E+08
192.168.43.159,-0.037597656,0.986328125,-0.037597656,0.061035156,-0.549316406,0.549316406,1.86E+08
192.168.43.159,-0.040039063,0.983398438,-0.041015625,-0.122070313,-0.549316406,0.549316406,1.86E+08
192.168.43.159,-0.032714844,0.984375,-0.032226563,-0.244140625,-0.793457031,0.610351563,1.86E+08
192.168.43.159,-0.028320313,0.982421875,-0.027832031,-0.122070313,-0.427246094,0.549316406,1.86E+08
192.168.43.159,-0.034179688,0.985351563,-0.029785156,0.244140625,-0.305175781,0.427246094,1.86E+08
192.168.43.159,-0.042480469,0.983886719,-0.041015625,0.366210938,-0.48828125,0.427246094,1.86E+08
192.168.43.159,-0.041503906,0.985839844,-0.042480469,-0.061035156,0.122070313,0.48828125,1.86E+08
192.168.43.159,-0.029785156,0.985839844,-0.033203125,-0.366210938,1.037597656,0.48828125,1.86E+08
192.168.43.159,-0.027832031,0.985351563,-0.030761719,-0.427246094,0.671386719,0.549316406,1.86E+08
192.168.43.159,-0.037597656,0.983398438,-0.0390625,-0.427246094,0.915527344,0.610351563,1.86E+08
192.168.43.159,-0.044921875,0.983398438,-0.035644531,-0.854492188,2.014160156,1.098632813,1.86E+08
192.168.43.159,-0.035644531,0.984863281,-0.030273438,-0.854492188,2.502441406,1.342773438,1.86E+08
192.168.43.159,-0.030761719,0.984863281,-0.032226563,-1.037597656,2.136230469,1.525878906,1.86E+08
192.168.43.159,-0.022460938,0.982910156,-0.027832031,-1.281738281,3.051757813,1.220703125,1.86E+08
192.168.43.159,-0.025878906,0.985839844,-0.027832031,-1.037597656,3.784179688,1.342773438,1.86E+08
192.168.43.159,-0.033203125,0.984863281,-0.03125,-1.098632813,2.44140625,1.037597656,1.86E+08
192.168.43.159,-0.029785156,0.985839844,-0.032714844,-1.403808594,1.098632813,1.159667969,1.86E+08
192.168.43.159,-0.024414063,0.985351563,-0.032714844,-1.708984375,0.183105469,1.281738281,1.86E+08
192.168.43.159,-0.027832031,0.983886719,-0.026367188,-1.708984375,0.549316406,1.098632813,1.86E+08
192.168.43.159,-0.028808594,0.984375,-0.020507813,-1.525878906,0.915527344,0.854492188,1.86E+08
192.168.43.159,-0.025390625,0.983398438,-0.022460938,-1.220703125,0.366210938,0.549316406,1.86E+08
192.168.43.159,-0.024902344,0.981445313,-0.018554688,-0.671386719,0.244140625,0.366210938,1.86E+08
192.168.43.159,-0.031738281,0.983886719,-0.024902344,-0.48828125,0.305175781,0.427246094,1.86E+08
192.168.43.159,-0.027832031,0.986816406,-0.021972656,-0.610351563,-0.427246094,0.48828125,1.86E+08
192.168.43.159,-0.019042969,0.983398438,-0.021484375,-0.854492188,-0.366210938,0.244140625,1.86E+08
192.168.43.159,-0.021484375,0.981445313,-0.016601563,-0.793457031,0.610351563,0.427246094,1.86E+08
192.168.43.159,-0.027832031,0.986816406,-0.01953125,-0.061035156,0.610351563,0.244140625,1.86E+08
192.168.43.159,-0.024902344,0.986328125,-0.021484375,0.122070313,0.305175781,-0.061035156,1.86E+08
192.168.43.159,-0.027832031,0.983886719,-0.022460938,0.366210938,0.366210938,-0.122070313,1.86E+08
192.168.43.159,-0.022949219,0.986328125,-0.022460938,0.48828125,0.305175781,-0.122070313,1.86E+08
192.168.43.159,-0.026367188,0.985839844,-0.022460938,0.48828125,0.427246094,-0.122070313,1.86E+08
192.168.43.159,-0.027832031,0.984375,-0.024414063,0.549316406,0.671386719,-0.183105469,1.86E+08
192.168.43.159,-0.01953125,0.983398438,-0.016113281,0.732421875,0.610351563,-0.244140625,1.86E+08
192.168.43.159,-0.021484375,0.981445313,-0.014160156,1.159667969,0.854492188,-0.366210938,1.87E+08
192.168.43.159,-0.030273438,0.984375,-0.022460938,1.708984375,0.671386719,-0.366210938,1.87E+08
192.168.43.159,-0.032226563,0.986816406,-0.029785156,1.708984375,0,-0.427246094,1.87E+08
192.168.43.159,-0.022460938,0.983886719,-0.02734375,1.220703125,0.061035156,-0.305175781,1.87E+08
192.168.43.159,-0.022460938,0.985839844,-0.023925781,1.281738281,0.793457031,-0.183105469,1.87E+08
192.168.43.159,-0.024902344,0.983398438,-0.024414063,1.098632813,1.098632813,-0.366210938,1.87E+08
192.168.43.159,-0.02734375,0.981933594,-0.023925781,0.9765625,0.915527344,-0.48828125,1.87E+08
192.168.43.159,-0.026855469,0.984863281,-0.026367188,0.9765625,0.793457031,-0.427246094,1.87E+08
192.168.43.159,-0.0234375,0.986328125,-0.025390625,1.098632813,0.9765625,-0.305175781,1.87E+08
192.168.43.159,-0.020507813,0.982421875,-0.025390625,1.342773438,0.427246094,-0.305175781,1.87E+08
192.168.43.159,-0.021972656,0.983398438,-0.024902344,1.586914063,0.366210938,-0.48828125,1.87E+08
192.168.43.159,-0.022949219,0.982910156,-0.023925781,1.586914063,0.549316406,-0.915527344,1.87E+08
192.168.43.159,-0.024902344,0.984375,-0.026367188,1.098632813,0.793457031,-1.159667969,1.87E+08
192.168.43.159,-0.025390625,0.980957031,-0.024902344,1.46484375,1.159667969,-1.342773438,1.87E+08
192.168.43.159,-0.027832031,0.985351563,-0.028320313,2.014160156,1.647949219,-1.220703125,1.87E+08
192.168.43.159,-0.026855469,0.985839844,-0.03125,2.319335938,1.159667969,-1.281738281,1.87E+08
192.168.43.159,-0.025878906,0.986328125,-0.029296875,2.624511719,0.915527344,-1.220703125,1.87E+08
192.168.43.159,-0.028808594,0.983398438,-0.029785156,2.624511719,0.915527344,-1.342773438,1.87E+08
192.168.43.159,-0.023925781,0.98046875,-0.025878906,2.685546875,0.671386719,-1.586914063,1.87E+08
192.168.43.159,-0.020996094,0.984375,-0.021972656,2.990722656,0.366210938,-1.770019531,1.87E+08
192.168.43.159,-0.026367188,0.979980469,-0.023925781,3.112792969,0.061035156,-2.014160156,1.87E+08
192.168.43.159,-0.026855469,0.982421875,-0.02734375,4.089355469,0.549316406,-2.014160156,1.87E+08
192.168.43.159,-0.025390625,0.982421875,-0.03125,4.699707031,1.281738281,-1.953125,1.87E+08
192.168.43.159,-0.029785156,0.982421875,-0.036621094,5.126953125,1.46484375,-2.380371094,1.87E+08
192.168.43.159,-0.028320313,0.982421875,-0.044921875,5.065917969,0.9765625,-2.380371094,1.87E+08
192.168.43.159,-0.01953125,0.994140625,-0.047851563,4.8828125,1.525878906,-2.502441406,1.87E+08
192.168.43.159,-0.021972656,0.992675781,-0.037597656,2.746582031,2.502441406,-2.990722656,1.87E+08
192.168.43.159,-0.038574219,0.968261719,-0.027832031,2.502441406,3.540039063,-3.967285156,1.87E+08
192.168.43.159,-0.04296875,0.983398438,-0.041503906,5.554199219,2.624511719,-4.089355469,1.87E+08
192.168.43.159,-0.031738281,0.982421875,-0.044921875,5.432128906,0,-3.356933594,1.87E+08
192.168.43.159,-0.021484375,0.984375,-0.049804688,5.859375,-0.366210938,-3.41796875,1.87E+08
192.168.43.159,-0.021972656,0.984375,-0.045410156,6.469726563,-0.061035156,-3.90625,1.87E+08
192.168.43.159,-0.056640625,0.98828125,-0.057617188,6.408691406,0.671386719,-4.089355469,1.87E+08
192.168.43.159,-0.063476563,0.981933594,-0.073242188,4.821777344,-2.075195313,-3.662109375,1.87E+08
192.168.43.159,-0.030273438,0.983398438,-0.059570313,3.051757813,-2.380371094,-2.685546875,1.87E+08
192.168.43.159,-0.03125,0.983398438,-0.0546875,3.845214844,1.831054688,-3.112792969,1.87E+08
192.168.43.159,-0.052246094,0.978515625,-0.062011719,3.967285156,4.028320313,-3.41796875,1.87E+08
192.168.43.159,-0.051757813,0.985351563,-0.070800781,3.662109375,4.516601563,-3.356933594,1.87E+08
192.168.43.159,-0.041503906,0.983886719,-0.0625,3.234863281,4.150390625,-3.112792969,1.87E+08
192.168.43.159,-0.037109375,0.983398438,-0.064941406,2.807617188,4.333496094,-2.990722656,1.87E+08
192.168.43.159,-0.043457031,0.979003906,-0.057617188,2.44140625,5.126953125,-3.41796875,1.87E+08
192.168.43.159,-0.062011719,0.982910156,-0.067382813,2.9296875,4.638671875,-3.173828125,1.87E+08
192.168.43.159,-0.060546875,0.989257813,-0.075195313,2.380371094,3.479003906,-2.807617188,1.87E+08
192.168.43.159,-0.062011719,0.989746094,-0.064453125,0.366210938,0.610351563,-2.197265625,1.87E+08
192.168.43.159,-0.029296875,0.980957031,-0.063964844,1.220703125,-1.159667969,-2.014160156,1.87E+08
192.168.43.159,-0.057617188,0.991699219,-0.087402344,2.014160156,1.098632813,-2.075195313,1.87E+08
192.168.43.159,-0.055175781,0.982910156,-0.064453125,0.793457031,-0.854492188,-1.586914063,1.87E+08
192.168.43.159,-0.070800781,0.978027344,-0.071777344,0.610351563,-0.122070313,-1.525878906,1.87E+08
192.168.43.159,-0.062988281,0.983398438,-0.08203125,0.244140625,-0.366210938,-1.220703125,1.87E+08
192.168.43.159,-0.052246094,0.987792969,-0.099121094,-0.9765625,-1.220703125,-0.793457031,1.87E+08
192.168.43.159,-0.051269531,0.989257813,-0.080078125,-2.990722656,-0.732421875,-0.549316406,1.87E+08
192.168.43.159,-0.06640625,0.986328125,-0.065429688,-3.845214844,-0.48828125,-0.122070313,1.88E+08
192.168.43.159,-0.065429688,0.980957031,-0.080078125,-4.8828125,-2.075195313,0.244140625,1.88E+08
192.168.43.159,-0.043945313,0.982910156,-0.076660156,-6.164550781,-2.807617188,0.366210938,1.88E+08
192.168.43.159,-0.053222656,0.985839844,-0.066894531,-7.019042969,-0.183105469,0.305175781,1.88E+08
192.168.43.159,-0.061035156,0.989257813,-0.078125,-7.995605469,1.831054688,0.671386719,1.88E+08
192.168.43.159,-0.047851563,0.993652344,-0.070800781,-9.826660156,0.305175781,1.220703125,1.88E+08
192.168.43.159,-0.049316406,0.985351563,-0.059570313,-12.32910156,0.183105469,1.647949219,1.88E+08
192.168.43.159,-0.0546875,0.983398438,-0.040039063,-13.30566406,1.403808594,2.197265625,1.88E+08
192.168.43.159,-0.063964844,0.987792969,-0.034179688,-13.54980469,1.892089844,2.319335938,1.88E+08
192.168.43.159,-0.060546875,0.987304688,-0.041503906,-14.28222656,0.610351563,2.258300781,1.88E+08
192.168.43.159,-0.037597656,0.98828125,-0.033691406,-15.07568359,-0.671386719,2.624511719,1.88E+08
192.168.43.159,-0.040039063,0.98828125,-0.025390625,-15.86914063,0.793457031,2.9296875,1.88E+08
192.168.43.159,-0.060058594,0.983398438,-0.015136719,-16.11328125,2.685546875,3.295898438,1.88E+08
192.168.43.159,-0.062011719,0.994628906,-0.012695313,-16.23535156,1.953125,3.601074219,1.88E+08
192.168.43.159,-0.042480469,0.981933594,-0.007324219,-17.578125,-0.549316406,3.601074219,1.88E+08
192.168.43.159,-0.013671875,0.979003906,0.004882813,-16.78466797,-0.48828125,4.028320313,1.88E+08
192.168.43.159,-0.02734375,0.991699219,0.01171875,-16.78466797,3.479003906,3.90625,1.88E+08
192.168.43.159,-0.043457031,0.9921875,0.021972656,-18.00537109,5.920410156,4.211425781,1.88E+08
192.168.43.159,-0.063476563,0.990234375,0.035644531,-20.69091797,5.737304688,3.967285156,1.88E+08
192.168.43.159,-0.037109375,0.981933594,0.040527344,-22.52197266,2.258300781,3.845214844,1.88E+08
192.168.43.159,-0.005859375,0.994140625,0.046386719,-22.76611328,0.793457031,3.723144531,1.88E+08
192.168.43.159,-0.002929688,0.924804688,0.052246094,-18.61572266,2.563476563,4.455566406,1.88E+08
192.168.43.159,-0.038085938,1.01953125,0.030761719,-18.18847656,5.859375,4.150390625,1.88E+08
192.168.43.159,-0.037597656,1.006347656,0.0546875,-18.67675781,6.164550781,4.39453125,1.88E+08
192.168.43.159,-0.037109375,1.016113281,0.068847656,-22.94921875,6.652832031,3.601074219,1.88E+08
192.168.43.159,-0.038574219,0.98046875,0.0859375,-30.70068359,4.516601563,1.953125,1.88E+08
192.168.43.159,-0.020996094,0.887695313,0.112304688,-26.91650391,2.197265625,3.173828125,1.88E+08
192.168.43.159,-0.030761719,0.981933594,0.125,-16.78466797,-1.525878906,4.455566406,1.88E+08
192.168.43.159,-0.027832031,1.024902344,0.112792969,-20.81298828,-2.990722656,3.540039063,1.88E+08
192.168.43.159,-0.01953125,0.998046875,0.12109375,-16.96777344,-1.647949219,4.028320313,1.88E+08
192.168.43.159,-0.016113281,0.979492188,0.122070313,-19.28710938,-3.662109375,3.601074219,1.88E+08
192.168.43.159,-0.023925781,0.953613281,0.129394531,-24.4140625,-7.507324219,2.807617188,1.88E+08
192.168.43.159,-0.013671875,0.987304688,0.116210938,-10.98632813,-5.981445313,4.760742188,1.88E+08
192.168.43.159,-0.026367188,0.908691406,0.145019531,-20.5078125,-8.239746094,3.479003906,1.88E+08
192.168.43.159,-0.01171875,1.078125,0.11328125,-10.92529297,-2.990722656,7.080078125,1.88E+08
192.168.43.159,-0.0078125,0.945800781,0.17578125,-32.77587891,-9.460449219,4.333496094,1.88E+08
192.168.43.159,0.029785156,0.980957031,0.186523438,-13.79394531,4.577636719,5.310058594,1.88E+08
192.168.43.159,-0.017089844,0.974609375,0.166503906,-10.86425781,9.155273438,4.760742188,1.88E+08
192.168.43.159,-0.01171875,0.934570313,0.204101563,-15.50292969,-4.699707031,4.760742188,1.88E+08
192.168.43.159,0.002441406,0.900390625,0.1953125,-15.31982422,-6.286621094,3.601074219,1.88E+08
192.168.43.159,0.008789063,1.017578125,0.162109375,-4.760742188,2.014160156,5.676269531,1.88E+08
192.168.43.159,-0.009765625,0.962402344,0.187011719,-13.06152344,0.305175781,4.516601563,1.88E+08
192.168.43.159,-0.007324219,0.903808594,0.206054688,-21.11816406,-5.615234375,2.563476563,1.88E+08
192.168.43.159,0.005859375,1.031738281,0.16796875,-6.225585938,-1.953125,4.39453125,1.88E+08
192.168.43.159,-0.010742188,0.870117188,0.2109375,-25.02441406,-9.338378906,2.9296875,1.88E+08
192.168.43.159,0.010742188,0.989257813,0.204589844,-8.666992188,0.244140625,5.249023438,1.88E+08
192.168.43.159,-0.017089844,1.003417969,0.209472656,-10.31494141,3.112792969,5.615234375,1.88E+08
192.168.43.159,0.01953125,0.935058594,0.216796875,-18.49365234,-3.967285156,4.028320313,1.88E+08
192.168.43.159,-0.015625,1.042480469,0.198730469,-12.45117188,-3.845214844,4.39453125,1.88E+08
192.168.43.159,0.032226563,0.831542969,0.245117188,-20.38574219,-8.422851563,5.126953125,1.88E+08
192.168.43.159,-0.007324219,1.050292969,0.208496094,-6.408691406,3.41796875,5.859375,1.89E+08
192.168.43.159,0.0625,0.9453125,0.254882813,-14.89257813,-2.319335938,5.126953125,1.89E+08
192.168.43.159,0.041015625,0.948730469,0.275878906,-12.26806641,2.624511719,4.150390625,1.89E+08
192.168.43.159,0.019042969,0.8984375,0.282714844,-14.77050781,-1.525878906,3.356933594,1.89E+08
192.168.43.159,0.00390625,0.996582031,0.233886719,-9.460449219,-3.234863281,3.234863281,1.89E+08
192.168.43.159,-0.001464844,0.970703125,0.251464844,-16.90673828,-10.68115234,2.563476563,1.89E+08
192.168.43.159,-0.031738281,1.084960938,0.233398438,-2.258300781,2.624511719,3.051757813,1.89E+08
192.168.43.159,0.047851563,0.838378906,0.305175781,-20.56884766,-14.89257813,1.647949219,1.89E+08
192.168.43.159,0.065429688,0.978515625,0.257324219,1.586914063,-1.892089844,3.479003906,1.89E+08
192.168.43.159,-9.77E-04,0.940429688,0.254394531,-10.55908203,-3.662109375,0.9765625,1.89E+08
192.168.43.159,0.046875,0.879882813,0.309570313,-15.80810547,-11.29150391,0.9765625,1.89E+08
192.168.43.159,0.064453125,0.96484375,0.319335938,-2.502441406,-0.183105469,1.647949219,1.89E+08
192.168.43.159,-0.018554688,0.995117188,0.267578125,-5.676269531,2.136230469,1.037597656,1.89E+08
192.168.43.159,0.059082031,0.924316406,0.295410156,-9.094238281,-5.004882813,1.708984375,1.89E+08
192.168.43.159,0.057617188,0.92578125,0.296875,-5.554199219,4.150390625,2.44140625,1.89E+08
192.168.43.159,0.023925781,0.979003906,0.298339844,-0.183105469,11.59667969,1.281738281,1.89E+08
192.168.43.159,0.03125,0.893554688,0.327636719,-7.690429688,0.244140625,1.342773438,1.89E+08
192.168.43.159,0.038085938,0.994628906,0.264648438,-0.244140625,1.403808594,2.197265625,1.89E+08
192.168.43.159,0.041503906,0.931152344,0.269042969,-8.178710938,-5.493164063,1.770019531,1.89E+08
192.168.43.159,0.040527344,0.967773438,0.279785156,-6.042480469,-0.183105469,1.708984375,1.89E+08
192.168.43.159,0.028320313,0.937011719,0.296875,-10.07080078,-1.953125,2.014160156,1.89E+08
192.168.43.159,0.065429688,0.900390625,0.330566406,-5.859375,0.48828125,2.563476563,1.89E+08
192.168.43.159,0.03125,0.987304688,0.284667969,2.319335938,7.690429688,2.014160156,1.89E+08
192.168.43.159,0.018066406,0.966308594,0.274414063,-6.958007813,-1.647949219,2.746582031,1.89E+08
192.168.43.159,0.057617188,0.918945313,0.319335938,-10.68115234,-5.004882813,2.380371094,1.89E+08
192.168.43.159,0.04296875,0.932128906,0.314453125,-5.859375,1.281738281,1.46484375,1.89E+08
192.168.43.159,0.017578125,0.978515625,0.308105469,-5.981445313,1.281738281,2.319335938,1.89E+08
192.168.43.159,0.0546875,0.92578125,0.323242188,-10.49804688,-5.981445313,1.892089844,1.89E+08
192.168.43.159,0.063476563,0.940429688,0.311035156,-6.34765625,-2.258300781,1.586914063,1.89E+08
192.168.43.159,0.071777344,0.909179688,0.293945313,-1.831054688,2.197265625,3.295898438,1.89E+08
192.168.43.159,0.016113281,0.962890625,0.276367188,-3.41796875,4.211425781,2.746582031,1.89E+08
192.168.43.159,0.037109375,0.939453125,0.307617188,-11.35253906,-1.647949219,1.892089844,1.89E+08
192.168.43.159,0.061035156,0.941894531,0.344238281,-10.25390625,0.427246094,2.807617188,1.89E+08
192.168.43.159,0.035644531,0.917480469,0.350585938,-13.79394531,-0.854492188,2.136230469,1.89E+08
192.168.43.159,0.084472656,0.900878906,0.360839844,-4.577636719,0.427246094,2.44140625,1.89E+08
192.168.43.159,0.01953125,0.953613281,0.319335938,-8.7890625,0.427246094,2.197265625,1.89E+08
192.168.43.159,0.095214844,0.860351563,0.362792969,-12.39013672,-4.333496094,2.44140625,1.89E+08
192.168.43.159,0.062011719,0.97265625,0.326660156,-2.9296875,8.117675781,1.403808594,1.89E+08
192.168.43.159,0.021484375,0.962890625,0.313476563,-10.80322266,2.502441406,1.159667969,1.89E+08
192.168.43.159,0.0625,0.920898438,0.355957031,-14.83154297,-5.554199219,1.953125,1.89E+08
192.168.43.159,0.055175781,0.908203125,0.373535156,-13.12255859,-3.479003906,1.403808594,1.89E+08
192.168.43.159,0.04296875,0.907226563,0.375488281,-10.98632813,-3.112792969,0.244140625,1.89E+08
192.168.43.159,0.086914063,0.89453125,0.375,-4.760742188,0.183105469,1.586914063,1.89E+08
192.168.43.159,0.008789063,0.987792969,0.336914063,1.892089844,11.16943359,2.44140625,1.89E+08
192.168.43.159,0.056640625,0.897460938,0.362792969,-12.08496094,-4.455566406,1.159667969,1.89E+08
192.168.43.159,0.077148438,0.909667969,0.382324219,-9.399414063,-3.234863281,1.892089844,1.89E+08
192.168.43.159,0.045410156,0.94140625,0.366210938,-5.432128906,3.479003906,1.46484375,1.89E+08
192.168.43.159,0.068847656,0.8671875,0.38671875,-6.713867188,1.281738281,1.586914063,1.89E+08
192.168.43.159,0.047851563,0.971191406,0.354003906,-2.624511719,4.028320313,1.403808594,1.89E+08
192.168.43.159,0.055664063,0.875976563,0.376953125,-11.41357422,-1.953125,1.525878906,1.90E+08
192.168.43.159,0.048828125,0.9375,0.377441406,-6.958007813,1.708984375,1.892089844,1.90E+08
192.168.43.159,0.062011719,0.897460938,0.396484375,-10.07080078,-2.319335938,1.281738281,1.90E+08
192.168.43.159,0.071289063,0.921875,0.390136719,-5.981445313,-0.610351563,2.44140625,1.90E+08
192.168.43.159,0.060546875,0.888671875,0.389648438,-7.385253906,-1.098632813,1.46484375,1.90E+08
192.168.43.159,0.087402344,0.92578125,0.395507813,-0.244140625,5.249023438,2.258300781,1.90E+08
192.168.43.159,0.028320313,0.910644531,0.391113281,-8.605957031,3.356933594,2.014160156,1.90E+08
192.168.43.159,0.071289063,0.899414063,0.408691406,-8.544921875,-3.479003906,1.770019531,1.90E+08
192.168.43.159,0.072753906,0.869140625,0.414550781,-6.652832031,-2.807617188,1.892089844,1.90E+08
192.168.43.159,0.0703125,0.934570313,0.384765625,-1.403808594,1.037597656,1.159667969,1.90E+08
192.168.43.159,0.055175781,0.900390625,0.397460938,-6.225585938,-2.868652344,0,1.90E+08
192.168.43.159,0.059082031,0.901367188,0.409179688,-5.737304688,-4.577636719,0.732421875,1.90E+08
192.168.43.159,0.060546875,0.903320313,0.387695313,-6.408691406,-4.516601563,1.037597656,1.90E+08
192.168.43.159,0.082519531,0.903808594,0.410644531,-7.141113281,-3.662109375,1.342773438,1.90E+08
192.168.43.159,0.096679688,0.874511719,0.441894531,-0.732421875,3.051757813,1.46484375,1.90E+08
192.168.43.159,0.040039063,0.910644531,0.422851563,2.319335938,4.211425781,0.122070313,1.90E+08
192.168.43.159,0.062011719,0.916503906,0.404785156,0.549316406,-3.967285156,0.854492188,1.90E+08
192.168.43.159,0.088378906,0.90234375,0.402832031,-2.44140625,-5.859375,1.159667969,1.90E+08
192.168.43.159,0.067871094,0.907226563,0.387207031,-3.295898438,-2.319335938,0.793457031,1.90E+08
192.168.43.159,0.075195313,0.898925781,0.398925781,-4.272460938,-1.098632813,0.793457031,1.90E+08
192.168.43.159,0.078125,0.894042969,0.405273438,-5.249023438,-0.610351563,0.549316406,1.90E+08
192.168.43.159,0.080566406,0.895996094,0.423828125,-5.37109375,-1.220703125,0.48828125,1.90E+08
192.168.43.159,0.061523438,0.893554688,0.426269531,-4.699707031,-0.671386719,0.305175781,1.90E+08
192.168.43.159,0.066894531,0.893554688,0.428710938,-3.295898438,-0.732421875,0.427246094,1.90E+08
192.168.43.159,0.078613281,0.899414063,0.409179688,-2.624511719,-1.098632813,0.366210938,1.90E+08
192.168.43.159,0.087890625,0.901367188,0.404785156,-2.502441406,-1.098632813,0.183105469,1.90E+08
192.168.43.159,0.075195313,0.896484375,0.41015625,-3.967285156,-0.48828125,0.366210938,1.90E+08
192.168.43.159,0.072265625,0.884765625,0.440429688,-4.8828125,1.281738281,0.305175781,1.90E+08
192.168.43.159,0.064453125,0.887695313,0.452148438,-3.173828125,2.136230469,-0.122070313,1.90E+08
192.168.43.159,0.085449219,0.90234375,0.41015625,-0.366210938,-0.793457031,0.061035156,1.90E+08
192.168.43.159,0.083496094,0.892089844,0.411132813,-0.854492188,-1.220703125,-0.244140625,1.90E+08
192.168.43.159,0.073730469,0.886230469,0.422363281,-1.953125,0.061035156,-0.610351563,1.90E+08
192.168.43.159,0.07421875,0.8828125,0.439941406,-2.258300781,1.037597656,-0.671386719,1.90E+08
192.168.43.159,0.079101563,0.890625,0.450683594,-1.281738281,0.183105469,-0.793457031,1.90E+08
192.168.43.159,0.073730469,0.895996094,0.448242188,0.793457031,-0.244140625,-0.610351563,1.90E+08
192.168.43.159,0.062988281,0.88671875,0.413574219,2.502441406,1.525878906,0.244140625,1.90E+08
192.168.43.159,0.073730469,0.887207031,0.419433594,1.525878906,1.953125,-0.183105469,1.90E+08
192.168.43.159,0.08203125,0.886230469,0.437011719,1.098632813,0.793457031,-0.793457031,1.90E+08
192.168.43.159,0.072753906,0.888671875,0.447265625,1.953125,1.525878906,-0.915527344,1.90E+08
192.168.43.159,0.073242188,0.895507813,0.444824219,4.211425781,1.098632813,-0.854492188,1.90E+08
192.168.43.159,0.070800781,0.890625,0.424804688,6.286621094,-0.122070313,-0.793457031,1.90E+08
192.168.43.159,0.072265625,0.899414063,0.403808594,6.713867188,-0.366210938,-1.220703125,1.90E+08
192.168.43.159,0.073730469,0.894042969,0.401855469,5.187988281,-0.061035156,-1.281738281,1.90E+08
192.168.43.159,0.083007813,0.893066406,0.41796875,4.272460938,1.953125,-1.647949219,1.90E+08
192.168.43.159,0.069335938,0.888671875,0.442871094,5.310058594,3.173828125,-2.075195313,1.90E+08
192.168.43.159,0.057128906,0.891601563,0.434570313,7.385253906,1.831054688,-2.319335938,1.90E+08
192.168.43.159,0.073730469,0.905761719,0.412597656,9.460449219,-0.793457031,-2.014160156,1.90E+08
192.168.43.159,0.08203125,0.901367188,0.403808594,9.643554688,-0.732421875,-2.075195313,1.90E+08
192.168.43.159,0.065429688,0.884765625,0.400390625,8.666992188,0.732421875,-2.44140625,1.91E+08
192.168.43.159,0.080078125,0.895507813,0.423828125,9.765625,0.427246094,-2.990722656,1.91E+08
192.168.43.159,0.078125,0.89453125,0.437011719,11.23046875,1.037597656,-3.112792969,1.91E+08
192.168.43.159,0.057128906,0.898925781,0.415527344,13.54980469,1.770019531,-2.746582031,1.91E+08
192.168.43.159,0.05859375,0.912597656,0.398925781,15.07568359,2.9296875,-2.319335938,1.91E+08
192.168.43.159,0.072753906,0.91015625,0.395019531,16.05224609,2.990722656,-1.831054688,1.91E+08
192.168.43.159,0.069824219,0.909179688,0.369140625,15.99121094,2.9296875,-2.197265625,1.91E+08
192.168.43.159,0.074707031,0.903808594,0.359863281,15.80810547,1.403808594,-2.807617188,1.91E+08
192.168.43.159,0.071289063,0.912597656,0.3671875,14.70947266,-0.061035156,-3.479003906,1.91E+08
192.168.43.159,0.059570313,0.918457031,0.399902344,15.93017578,1.831054688,-3.723144531,1.91E+08
192.168.43.159,0.049316406,0.914550781,0.40234375,17.21191406,3.051757813,-3.601074219,1.91E+08
192.168.43.159,0.051757813,0.920898438,0.349609375,19.83642578,-0.061035156,-3.295898438,1.91E+08
192.168.43.159,0.072753906,0.94140625,0.314941406,21.11816406,-2.807617188,-2.136230469,1.91E+08
192.168.43.159,0.068847656,0.919921875,0.330078125,18.79882813,0.671386719,-2.075195313,1.91E+08
192.168.43.159,0.047851563,0.921875,0.344238281,18.5546875,4.577636719,-2.380371094,1.91E+08
192.168.43.159,0.0546875,0.927734375,0.341796875,19.83642578,2.685546875,-2.380371094,1.91E+08
192.168.43.159,0.069335938,0.933105469,0.322753906,20.32470703,0.610351563,-2.380371094,1.91E+08
192.168.43.159,0.062988281,0.979492188,0.315429688,19.59228516,2.319335938,-3.112792969,1.91E+08
192.168.43.159,0.05078125,0.875976563,0.336914063,14.09912109,2.44140625,-3.967285156,1.91E+08
192.168.43.159,0.055175781,0.954589844,0.310546875,26.06201172,4.272460938,-2.746582031,1.91E+08
192.168.43.159,0.049316406,0.983886719,0.299804688,22.09472656,0.244140625,-2.685546875,1.91E+08
192.168.43.159,0.064941406,0.869628906,0.316894531,17.63916016,0.549316406,-4.333496094,1.91E+08
192.168.43.159,0.049804688,0.976074219,0.276855469,23.62060547,6.530761719,-3.90625,1.91E+08
192.168.43.159,0.048828125,0.948242188,0.260742188,20.75195313,4.8828125,-4.028320313,1.91E+08
192.168.43.159,0.069824219,0.919921875,0.268554688,23.07128906,4.516601563,-3.601074219,1.91E+08
192.168.43.159,0.031738281,0.95703125,0.258300781,26.18408203,5.615234375,-3.41796875,1.91E+08
192.168.43.159,0.03515625,0.968261719,0.247558594,19.28710938,-1.403808594,-4.760742188,1.91E+08
192.168.43.159,0.084472656,0.91796875,0.263183594,19.89746094,-1.708984375,-5.004882813,1.91E+08
192.168.43.159,0.014648438,0.977539063,0.2265625,25.02441406,5.37109375,-4.699707031,1.91E+08
192.168.43.159,0.022460938,0.955078125,0.217773438,22.58300781,5.126953125,-4.577636719,1.91E+08
192.168.43.159,0.035644531,0.978027344,0.210449219,22.88818359,3.967285156,-4.089355469,1.91E+08
192.168.43.159,0.056640625,0.958984375,0.199707031,19.22607422,2.075195313,-4.760742188,1.91E+08
192.168.43.159,0.032226563,0.946777344,0.19140625,19.28710938,4.028320313,-4.943847656,1.91E+08
192.168.43.159,0.037109375,0.9609375,0.1796875,21.91162109,4.39453125,-4.638671875,1.91E+08
192.168.43.159,0.005371094,0.984863281,0.190917969,18.00537109,0.244140625,-4.699707031,1.91E+08
192.168.43.159,0.033203125,0.978027344,0.198242188,15.31982422,-0.366210938,-5.310058594,1.91E+08
192.168.43.159,0.05859375,0.944824219,0.203125,17.15087891,1.831054688,-5.798339844,1.91E+08
192.168.43.159,0.025878906,1.018554688,0.153320313,19.71435547,4.699707031,-5.798339844,1.91E+08
192.168.43.159,0.036132813,0.974609375,0.144042969,17.08984375,2.014160156,-6.530761719,1.91E+08
192.168.43.159,0.002929688,0.966308594,0.123046875,16.47949219,3.051757813,-6.042480469,1.91E+08
192.168.43.159,0.01171875,0.977050781,0.131835938,12.6953125,2.014160156,-5.981445313,1.91E+08
192.168.43.159,0.032226563,0.964355469,0.178710938,13.18359375,5.249023438,-5.737304688,1.91E+08
192.168.43.159,0.024902344,0.981933594,0.172851563,17.63916016,4.211425781,-5.004882813,1.91E+08
192.168.43.159,0.044921875,0.947265625,0.181640625,12.75634766,-2.9296875,-6.896972656,1.91E+08
192.168.43.159,0.038085938,1.001464844,0.136230469,21.30126953,-0.549316406,-7.202148438,1.91E+08
192.168.43.159,-0.010253906,0.955078125,0.119140625,14.52636719,0.183105469,-8.117675781,1.91E+08
192.168.43.159,-4.88E-04,0.97265625,0.114257813,18.18847656,-0.427246094,-7.629394531,1.91E+08
192.168.43.159,0.012207031,1.003417969,0.125488281,16.54052734,-1.46484375,-7.690429688,1.91E+08
192.168.43.159,0.021484375,0.966308594,0.123535156,16.23535156,1.708984375,-7.873535156,1.91E+08
192.168.43.159,0.006835938,0.978515625,0.093261719,19.77539063,3.295898438,-7.385253906,1.91E+08
192.168.43.159,0.001953125,0.979003906,0.084472656,14.83154297,-2.44140625,-7.751464844,1.92E+08
192.168.43.159,-0.012207031,0.9921875,0.086425781,15.68603516,-0.366210938,-7.995605469,1.92E+08
192.168.43.159,-0.027832031,0.961425781,0.075195313,13.79394531,-1.586914063,-7.751464844,1.92E+08
192.168.43.159,-0.013183594,1.007324219,0.080078125,15.74707031,-1.220703125,-7.202148438,1.92E+08
192.168.43.159,-0.014160156,0.997558594,0.069335938,13.48876953,-2.014160156,-6.774902344,1.92E+08
192.168.43.159,-0.023925781,0.978515625,0.044921875,9.704589844,-6.164550781,-6.286621094,1.92E+08
192.168.43.159,-9.77E-04,0.998535156,0.039550781,10.49804688,-5.554199219,-5.676269531,1.92E+08
192.168.43.159,-0.015136719,0.967285156,0.077148438,7.629394531,2.197265625,-5.737304688,1.92E+08
192.168.43.159,-0.037597656,1.004394531,0.081054688,9.826660156,4.638671875,-5.493164063,1.92E+08
192.168.43.159,0.004394531,0.943847656,0.104980469,7.690429688,-1.525878906,-6.164550781,1.92E+08
192.168.43.159,-9.77E-04,0.991699219,0.096679688,14.77050781,1.342773438,-6.34765625,1.92E+08
192.168.43.159,-0.021484375,0.977050781,0.070800781,14.52636719,0.9765625,-7.141113281,1.92E+08
192.168.43.159,-0.038085938,1.000488281,0.044433594,11.71875,0.427246094,-7.995605469,1.92E+08
192.168.43.159,-0.030761719,0.972167969,0.049804688,13.30566406,0.854492188,-7.629394531,1.92E+08
192.168.43.159,-0.028320313,0.972167969,0.047363281,14.58740234,1.342773438,-7.141113281,1.92E+08
192.168.43.159,-0.043945313,0.996582031,0.014160156,16.66259766,0.671386719,-6.896972656,1.92E+08
192.168.43.159,-0.030761719,0.985351563,0.020019531,14.09912109,-0.915527344,-6.408691406,1.92E+08
192.168.43.159,-0.037597656,1.004394531,0.030273438,10.92529297,3.723144531,-6.591796875,1.92E+08
192.168.43.159,-0.037109375,0.970703125,0.02734375,9.887695313,4.699707031,-6.896972656,1.92E+08
192.168.43.159,-0.037597656,0.982421875,0.007324219,13.18359375,5.615234375,-5.920410156,1.92E+08
192.168.43.159,-0.040527344,1.021484375,0.012207031,12.63427734,2.319335938,-5.37109375,1.92E+08
192.168.43.159,-0.032226563,0.947753906,0.034179688,9.216308594,1.342773438,-5.920410156,1.92E+08
192.168.43.159,-0.059082031,1.011230469,-0.005859375,12.51220703,1.770019531,-5.676269531,1.92E+08
192.168.43.159,-0.043945313,0.973144531,-0.001464844,8.911132813,-2.136230469,-5.920410156,1.92E+08
192.168.43.159,-0.033203125,0.981445313,0.012695313,11.59667969,-1.098632813,-5.920410156,1.92E+08
192.168.43.159,-0.053710938,0.986816406,-0.013183594,10.55908203,3.173828125,-5.920410156,1.92E+08
192.168.43.159,-0.058105469,0.977539063,-0.020507813,9.765625,1.953125,-5.37109375,1.92E+08
192.168.43.159,-0.060546875,0.980957031,-0.012207031,10.86425781,3.112792969,-4.150390625,1.92E+08
192.168.43.159,-0.077148438,0.992675781,-0.033203125,10.62011719,2.9296875,-3.90625,1.92E+08
192.168.43.159,-0.054199219,0.984375,-0.031738281,9.216308594,-2.075195313,-4.028320313,1.92E+08
192.168.43.159,-0.054199219,0.987304688,-0.029785156,8.422851563,-0.610351563,-3.784179688,1.92E+08
192.168.43.159,-0.083007813,1.013671875,-0.03125,4.39453125,1.647949219,-3.845214844,1.92E+08
192.168.43.159,-0.055664063,0.940917969,0,2.624511719,0.122070313,-3.90625,1.92E+08
192.168.43.159,-0.078125,1.004882813,-0.026367188,9.765625,1.647949219,-2.746582031,1.92E+08
192.168.43.159,-0.048339844,0.998046875,-0.041503906,5.798339844,-5.981445313,-2.9296875,1.92E+08
192.168.43.159,-0.03515625,0.964355469,-0.01953125,4.638671875,-4.760742188,-3.540039063,1.92E+08
192.168.43.159,-0.064941406,0.999511719,-0.024902344,8.7890625,0,-3.173828125,1.92E+08
192.168.43.159,-0.0859375,0.977539063,-0.0390625,5.554199219,-2.624511719,-3.173828125,1.92E+08
192.168.43.159,-0.064941406,0.990234375,-0.029785156,6.469726563,-3.845214844,-3.41796875,1.92E+08
192.168.43.159,-0.075195313,0.970703125,-0.041015625,5.981445313,-1.892089844,-3.112792969,1.92E+08
192.168.43.159,-0.083007813,0.979003906,-0.053222656,7.873535156,-0.427246094,-2.319335938,1.92E+08
192.168.43.159,-0.078613281,0.987792969,-0.052246094,7.263183594,-0.732421875,-2.258300781,1.92E+08
192.168.43.159,-0.056152344,1.004394531,-0.046386719,5.187988281,-3.479003906,-2.502441406,1.92E+08
192.168.43.159,-0.052246094,0.966796875,-0.053710938,2.685546875,-2.746582031,-2.807617188,1.92E+08
192.168.43.159,-0.064941406,0.979980469,-0.051269531,4.516601563,2.990722656,-2.563476563,1.92E+08
192.168.43.159,-0.087402344,0.975585938,-0.051269531,5.310058594,6.652832031,-2.44140625,1.92E+08
192.168.43.159,-0.066894531,0.987304688,-0.041015625,6.164550781,2.380371094,-1.892089844,1.92E+08
192.168.43.159,-0.063476563,0.985839844,-0.062988281,5.676269531,1.159667969,-1.403808594,1.92E+08
192.168.43.159,-0.063476563,0.982910156,-0.050292969,2.868652344,1.403808594,-1.770019531,1.92E+08
192.168.43.159,-0.058105469,0.967285156,-0.032714844,4.577636719,1.953125,-1.770019531,1.92E+08
192.168.43.159,-0.086425781,0.974609375,-0.04296875,6.958007813,1.770019531,-1.647949219,1.93E+08
192.168.43.159,-0.086425781,0.978515625,-0.059570313,8.728027344,-0.854492188,-1.098632813,1.93E+08
192.168.43.159,-0.092285156,0.991210938,-0.072753906,8.544921875,-1.037597656,-0.915527344,1.93E+08
192.168.43.159,-0.067382813,0.965332031,-0.062988281,6.8359375,-0.610351563,-1.281738281,1.93E+08
192.168.43.159,-0.072753906,0.98046875,-0.069335938,9.27734375,2.868652344,-0.793457031,1.93E+08
192.168.43.159,-0.076660156,0.982910156,-0.079101563,9.460449219,0.793457031,-0.549316406,1.93E+08
192.168.43.159,-0.076660156,1,-0.079101563,9.094238281,-1.220703125,-0.671386719,1.93E+08
192.168.43.159,-0.081054688,0.962402344,-0.076171875,4.638671875,-1.098632813,-1.403808594,1.93E+08
192.168.43.159,-0.079589844,0.981445313,-0.079589844,8.30078125,-0.244140625,-0.793457031,1.93E+08
192.168.43.159,-0.067871094,0.970214844,-0.081542969,8.422851563,0.366210938,-1.159667969,1.93E+08
192.168.43.159,-0.048339844,0.98828125,-0.096191406,9.338378906,1.159667969,-1.098632813,1.93E+08
192.168.43.159,-0.046875,0.991699219,-0.098144531,7.32421875,1.953125,-1.46484375,1.93E+08
192.168.43.159,-0.079589844,0.967773438,-0.092773438,5.554199219,4.943847656,-1.953125,1.93E+08
192.168.43.159,-0.092773438,0.97265625,-0.096679688,7.995605469,6.164550781,-1.46484375,1.93E+08
192.168.43.159,-0.083984375,0.976074219,-0.100585938,7.934570313,5.187988281,-1.586914063,1.93E+08
192.168.43.159,-0.069824219,0.980957031,-0.104980469,7.8125,4.089355469,-1.342773438,1.93E+08
192.168.43.159,-0.065429688,0.990722656,-0.100097656,7.385253906,2.136230469,-1.770019531,1.93E+08
192.168.43.159,-0.038085938,0.959960938,-0.089355469,5.554199219,0.549316406,-2.563476563,1.93E+08
192.168.43.159,-0.078125,0.98046875,-0.11328125,8.728027344,7.202148438,-2.44140625,1.93E+08
192.168.43.159,-0.095703125,0.971679688,-0.107421875,7.446289063,5.493164063,-2.136230469,1.93E+08
192.168.43.159,-0.091796875,0.970703125,-0.102539063,8.666992188,6.34765625,-2.502441406,1.93E+08
192.168.43.159,-0.090820313,0.979003906,-0.121582031,9.216308594,5.065917969,-2.502441406,1.93E+08
192.168.43.159,-0.063476563,0.984863281,-0.127441406,7.751464844,-0.244140625,-2.502441406,1.93E+08
192.168.43.159,-0.016601563,0.963867188,-0.111328125,8.666992188,0,-2.685546875,1.93E+08
192.168.43.159,-0.124023438,0.981445313,-0.126953125,9.765625,10.07080078,-3.112792969,1.93E+08
192.168.43.159,-0.1171875,0.958984375,-0.113769531,7.8125,2.44140625,-2.807617188,1.93E+08
192.168.43.159,-0.067871094,0.974121094,-0.125,9.765625,-0.366210938,-2.990722656,1.93E+08
192.168.43.159,-0.070800781,0.977539063,-0.134277344,9.887695313,2.075195313,-3.173828125,1.93E+08
192.168.43.159,-0.108886719,0.97265625,-0.135742188,9.887695313,2.9296875,-2.990722656,1.93E+08
192.168.43.159,-0.115722656,0.96875,-0.14453125,9.826660156,-0.549316406,-2.868652344,1.93E+08
192.168.43.159,-0.080566406,0.971679688,-0.142089844,9.521484375,-4.943847656,-2.44140625,1.93E+08
192.168.43.159,-0.077636719,0.970703125,-0.1484375,9.033203125,-2.685546875,-2.624511719,1.93E+08
192.168.43.159,-0.071777344,0.970214844,-0.149902344,9.521484375,-0.732421875,-2.563476563,1.93E+08
192.168.43.159,-0.078613281,0.972167969,-0.15234375,9.643554688,-0.732421875,-2.868652344,1.93E+08
192.168.43.159,-0.102050781,0.967773438,-0.143066406,9.338378906,0.48828125,-3.051757813,1.93E+08
192.168.43.159,-0.102050781,0.959472656,-0.145019531,9.582519531,0.915527344,-3.234863281,1.93E+08
192.168.43.159,-0.050292969,0.966796875,-0.153320313,10.07080078,-0.610351563,-3.662109375,1.93E+08
192.168.43.159,-0.085449219,0.971191406,-0.168457031,10.37597656,3.112792969,-3.845214844,1.93E+08
192.168.43.159,-0.141601563,0.967285156,-0.169921875,10.07080078,5.065917969,-3.540039063,1.93E+08
192.168.43.159,-0.115722656,0.96875,-0.158691406,9.887695313,0.427246094,-3.295898438,1.93E+08
192.168.43.159,-0.087890625,0.964355469,-0.171386719,10.25390625,-1.892089844,-2.9296875,1.93E+08
192.168.43.159,-0.061035156,0.956542969,-0.189941406,9.948730469,-2.502441406,-3.112792969,1.93E+08
192.168.43.159,-0.066894531,0.967773438,-0.186035156,9.216308594,-0.305175781,-3.540039063,1.93E+08
192.168.43.159,-0.150390625,0.962402344,-0.177246094,8.7890625,3.967285156,-3.41796875,1.93E+08
192.168.43.159,-0.149902344,0.955566406,-0.168457031,9.399414063,1.037597656,-3.051757813,1.93E+08
192.168.43.159,-0.075683594,0.959960938,-0.186523438,9.643554688,-2.807617188,-2.990722656,1.93E+08
192.168.43.159,-0.047363281,0.967285156,-0.197753906,9.399414063,-0.732421875,-3.295898438,1.93E+08
192.168.43.159,-0.103515625,0.962890625,-0.198730469,8.911132813,3.540039063,-3.479003906,1.93E+08
192.168.43.159,-0.163085938,0.959472656,-0.187988281,8.728027344,2.563476563,-3.41796875,1.93E+08
192.168.43.159,-0.1328125,0.9609375,-0.194335938,9.155273438,-2.136230469,-3.051757813,1.93E+08
192.168.43.159,-0.023925781,0.954101563,-0.188476563,9.765625,-5.432128906,-3.173828125,1.94E+08
192.168.43.159,-0.063476563,0.958496094,-0.193359375,10.43701172,1.403808594,-3.723144531,1.94E+08
192.168.43.159,-0.171386719,0.957519531,-0.223144531,10.68115234,5.676269531,-3.540039063,1.94E+08
192.168.43.159,-0.146972656,0.951660156,-0.224121094,10.00976563,0.427246094,-3.234863281,1.94E+08
192.168.43.159,-0.100097656,0.954101563,-0.212890625,9.521484375,0.061035156,-3.051757813,1.94E+08
192.168.43.159,-0.080078125,0.954589844,-0.216308594,9.704589844,1.281738281,-3.356933594,1.94E+08
192.168.43.159,-0.089355469,0.955566406,-0.219726563,10.43701172,2.563476563,-3.723144531,1.94E+08
192.168.43.159,-0.105957031,0.935058594,-0.256835938,2.197265625,-6.530761719,-1.892089844,1.94E+08
192.168.43.159,-0.14453125,0.942871094,-0.263671875,2.319335938,-2.9296875,-2.197265625,1.94E+08
192.168.43.159,-0.147460938,0.944824219,-0.263183594,1.342773438,-3.540039063,-2.075195313,1.94E+08
192.168.43.159,-0.167480469,0.935546875,-0.254394531,0.671386719,-1.281738281,-1.831054688,1.94E+08
192.168.43.159,-0.174316406,0.93359375,-0.262695313,0.915527344,-1.586914063,-1.46484375,1.94E+08
192.168.43.159,-0.126464844,0.939453125,-0.264160156,1.037597656,-3.845214844,-1.525878906,1.94E+08
192.168.43.159,-0.132324219,0.946777344,-0.272460938,0.732421875,-2.258300781,-1.403808594,1.94E+08
192.168.43.159,-0.156738281,0.940429688,-0.263671875,-0.671386719,-1.159667969,-1.098632813,1.94E+08
192.168.43.159,-0.184570313,0.927246094,-0.243164063,-0.9765625,-0.610351563,-0.854492188,1.94E+08
192.168.43.159,-0.145507813,0.930664063,-0.232910156,0.549316406,-4.272460938,-0.915527344,1.94E+08
192.168.43.159,-0.126953125,0.935058594,-0.249023438,2.014160156,-3.662109375,-1.159667969,1.94E+08
192.168.43.159,-0.15625,0.940917969,-0.25390625,2.502441406,-1.831054688,-1.342773438,1.94E+08
192.168.43.159,-0.18359375,0.9375,-0.268554688,2.502441406,-2.380371094,-1.281738281,1.95E+08
192.168.43.159,-0.162597656,0.943359375,-0.279296875,1.892089844,-4.8828125,-0.732421875,1.95E+08
192.168.43.159,-0.146484375,0.939941406,-0.27734375,0.305175781,-3.356933594,-0.427246094,1.95E+08
192.168.43.159,-0.179199219,0.935546875,-0.262207031,-0.9765625,-1.281738281,-0.061035156,1.95E+08
192.168.43.159,-0.19140625,0.941894531,-0.261230469,-1.159667969,-4.699707031,0.793457031,1.95E+08
192.168.43.159,-0.124023438,0.939941406,-0.257324219,-1.770019531,-7.8125,1.159667969,1.95E+08
192.168.43.159,-0.137695313,0.9375,-0.256835938,-2.502441406,-2.868652344,1.098632813,1.95E+08
192.168.43.159,-0.135253906,0.937011719,-0.250976563,-2.44140625,-1.403808594,0.610351563,1.95E+08
192.168.43.159,-0.139648438,0.938964844,-0.2421875,-2.380371094,-0.183105469,0.366210938,1.95E+08
192.168.43.159,-0.161621094,0.943359375,-0.252441406,-2.258300781,1.831054688,0.549316406,1.95E+08
192.168.43.159,-0.162597656,0.939453125,-0.257324219,-2.868652344,2.990722656,0.9765625,1.95E+08
192.168.43.159,-0.150878906,0.936035156,-0.252929688,-3.173828125,3.479003906,1.098632813,1.95E+08
192.168.43.159,-0.149902344,0.940917969,-0.24609375,-3.295898438,4.638671875,1.159667969,1.95E+08
192.168.43.159,-0.147460938,0.94140625,-0.239746094,-3.173828125,4.089355469,1.342773438,1.95E+08
192.168.43.159,-0.168457031,0.939941406,-0.233886719,-3.112792969,4.577636719,1.586914063,1.95E+08
192.168.43.159,-0.196289063,0.942871094,-0.24609375,-2.380371094,0.915527344,2.197265625,1.95E+08
192.168.43.159,-0.140136719,0.944335938,-0.252441406,-2.197265625,-6.713867188,2.685546875,1.95E+08
192.168.43.159,-0.137695313,0.947265625,-0.270019531,-3.173828125,-4.39453125,2.990722656,1.95E+08
192.168.43.159,-0.158691406,0.947265625,-0.259765625,-4.638671875,1.037597656,3.173828125,1.95E+08
192.168.43.159,-0.148925781,0.948242188,-0.250976563,-5.615234375,0.671386719,3.540039063,1.95E+08
192.168.43.159,-0.139648438,0.944824219,-0.233398438,-6.8359375,0.122070313,4.028320313,1.95E+08
192.168.43.159,-0.138671875,0.943359375,-0.226074219,-6.896972656,0.305175781,4.211425781,1.95E+08
192.168.43.159,-0.125,0.940917969,-0.221679688,-5.737304688,0.244140625,3.723144531,1.95E+08
192.168.43.159,-0.139648438,0.945800781,-0.221679688,-4.760742188,0.793457031,3.662109375,1.95E+08
192.168.43.159,-0.158691406,0.952148438,-0.235839844,-4.089355469,1.403808594,3.662109375,1.95E+08
192.168.43.159,-0.137207031,0.952148438,-0.241699219,-4.577636719,-0.427246094,4.028320313,1.95E+08
192.168.43.159,-0.11328125,0.957519531,-0.244628906,-6.042480469,-0.183105469,4.150390625,1.95E+08
192.168.43.159,-0.128417969,0.955566406,-0.247070313,-7.751464844,2.258300781,4.39453125,1.95E+08
192.168.43.159,-0.145507813,0.947753906,-0.240234375,-9.704589844,4.211425781,4.821777344,1.95E+08
192.168.43.159,-0.138183594,0.941894531,-0.214355469,-10.13183594,5.737304688,4.638671875,1.95E+08
192.168.43.159,-0.106933594,0.951660156,-0.1953125,-9.094238281,2.258300781,4.150390625,1.95E+08
192.168.43.159,-0.099121094,0.950683594,-0.193847656,-7.751464844,-0.244140625,3.784179688,1.95E+08
192.168.43.159,-0.141601563,0.951660156,-0.213867188,-6.591796875,1.281738281,3.234863281,1.95E+08
192.168.43.159,-0.114257813,0.958496094,-0.231933594,-7.263183594,-2.563476563,3.295898438,1.95E+08
192.168.43.159,-0.052734375,0.948730469,-0.204589844,-7.751464844,-0.427246094,3.051757813,1.95E+08
192.168.43.159,-0.110351563,0.950195313,-0.181640625,-7.263183594,7.629394531,2.075195313,1.95E+08
192.168.43.159,-0.12890625,0.947265625,-0.163574219,-5.798339844,6.896972656,1.403808594,1.95E+08
192.168.43.159,-0.125976563,0.949707031,-0.181152344,-3.356933594,1.220703125,0.915527344,1.95E+08
192.168.43.159,-0.090820313,0.957519531,-0.201660156,-1.831054688,-4.455566406,0.48828125,1.95E+08
192.168.43.159,-0.090820313,0.966308594,-0.215820313,-1.46484375,-5.187988281,0.183105469,1.95E+08
192.168.43.159,-0.169433594,0.958496094,-0.211425781,-2.44140625,-1.037597656,0.48828125,1.95E+08
192.168.43.159,-0.158203125,0.955078125,-0.207519531,-3.540039063,-5.798339844,1.525878906,1.95E+08
192.168.43.159,-0.077636719,0.948242188,-0.188964844,-3.845214844,-4.821777344,1.46484375,1.95E+08
192.168.43.159,-0.109863281,0.959472656,-0.177246094,-2.9296875,-0.427246094,1.159667969,1.95E+08
192.168.43.159,-0.106445313,0.958984375,-0.186523438,-2.014160156,-7.446289063,0.793457031,1.95E+08
192.168.43.159,-0.119628906,0.966796875,-0.204101563,-1.342773438,-9.399414063,0.610351563,1.95E+08
192.168.43.159,-0.200683594,0.974121094,-0.233886719,-2.197265625,-8.972167969,1.525878906,1.95E+08
192.168.43.159,-0.13671875,0.966796875,-0.222167969,-5.065917969,-14.09912109,2.990722656,1.95E+08
192.168.43.159,-0.067382813,0.955078125,-0.202148438,-7.629394531,-13.24462891,3.601074219,1.95E+08
192.168.43.159,-0.093261719,0.957519531,-0.150878906,-7.995605469,-7.690429688,3.234863281,1.95E+08
192.168.43.159,-0.142578125,0.954101563,-0.158691406,-7.080078125,-12.20703125,2.868652344,1.96E+08
192.168.43.159,-0.102539063,0.969726563,-0.1640625,-5.065917969,-21.66748047,2.990722656,1.96E+08
192.168.43.159,-0.06640625,0.962890625,-0.181640625,-4.638671875,-19.71435547,3.234863281,1.96E+08
192.168.43.159,-0.152832031,0.949707031,-0.176269531,-5.615234375,-5.676269531,3.479003906,1.96E+08
192.168.43.159,-0.147460938,0.959472656,-0.177734375,-5.920410156,-3.41796875,3.601074219,1.96E+08
192.168.43.159,-0.10546875,0.971679688,-0.171875,-6.164550781,-9.094238281,3.784179688,1.96E+08
192.168.43.159,-0.096679688,0.967285156,-0.165039063,-5.981445313,-13.91601563,3.845214844,1.96E+08
192.168.43.159,-0.037597656,0.956542969,-0.138671875,-5.310058594,-16.6015625,3.90625,1.96E+08
192.168.43.159,-0.145019531,0.956542969,-0.132324219,-3.295898438,-5.065917969,3.295898438,1.96E+08
192.168.43.159,-0.142578125,0.958007813,-0.1640625,-2.136230469,-9.948730469,3.601074219,1.96E+08
192.168.43.159,-0.05078125,0.974609375,-0.147460938,-2.014160156,-12.57324219,3.601074219,1.96E+08
192.168.43.159,-0.120605469,0.977539063,-0.166992188,-2.258300781,-2.807617188,3.356933594,1.96E+08
192.168.43.159,-0.140136719,0.951660156,-0.187988281,-2.990722656,-6.896972656,3.784179688,1.96E+08
192.168.43.159,-0.055664063,0.971191406,-0.166015625,-3.784179688,-11.04736328,3.784179688,1.96E+08
192.168.43.159,-0.068847656,0.977050781,-0.1328125,-4.333496094,-3.601074219,3.784179688,1.96E+08
192.168.43.159,-0.143554688,0.954101563,-0.124511719,-3.479003906,3.540039063,3.90625,1.96E+08
192.168.43.159,-0.094726563,0.973144531,-0.13671875,-1.159667969,-3.540039063,3.784179688,1.96E+08
192.168.43.159,-0.052246094,0.980957031,-0.148925781,-0.549316406,-7.385253906,3.479003906,1.96E+08
192.168.43.159,-0.060546875,0.946289063,-0.14453125,-0.549316406,-2.258300781,3.479003906,1.96E+08
192.168.43.159,-0.160644531,0.953125,-0.152832031,0,4.39453125,3.540039063,1.96E+08
192.168.43.159,-0.143554688,0.993652344,-0.154296875,-0.061035156,0.122070313,4.089355469,1.96E+08
192.168.43.159,-0.060058594,0.986816406,-0.150878906,-0.9765625,-4.577636719,4.516601563,1.96E+08
192.168.43.159,-0.010742188,0.959472656,-0.121582031,-0.122070313,-4.089355469,4.089355469,1.96E+08
192.168.43.159,-0.12109375,0.954589844,-0.139160156,2.014160156,2.746582031,3.845214844,1.96E+08
192.168.43.159,-0.138671875,0.955078125,-0.162597656,1.220703125,3.845214844,4.089355469,1.96E+08
192.168.43.159,-0.05078125,0.967285156,-0.156738281,-0.183105469,4.272460938,3.784179688,1.96E+08
192.168.43.159,-0.008789063,0.975585938,-0.163085938,-0.427246094,3.051757813,2.990722656,1.96E+08
192.168.43.159,-0.050292969,0.988769531,-0.15234375,0.122070313,1.281738281,2.685546875,1.96E+08
192.168.43.159,-0.166992188,0.967285156,-0.126464844,0.48828125,5.737304688,3.601074219,1.96E+08
192.168.43.159,-0.201171875,0.966796875,-0.150390625,0.244140625,7.446289063,4.455566406,1.96E+08
192.168.43.159,-0.013183594,0.959472656,-0.183105469,-0.732421875,-0.732421875,4.760742188,1.96E+08
192.168.43.159,0.043457031,0.972167969,-0.152832031,-1.708984375,3.41796875,4.211425781,1.96E+08
192.168.43.159,-0.103515625,0.985839844,-0.129394531,-0.732421875,9.643554688,3.173828125,1.96E+08
192.168.43.159,-0.092285156,0.984863281,-0.153320313,-0.427246094,0.915527344,3.601074219,1.96E+08
192.168.43.159,-0.116210938,0.968261719,-0.172363281,-1.525878906,4.577636719,4.211425781,1.96E+08
192.168.43.159,-0.053710938,0.950195313,-0.132324219,-2.319335938,5.615234375,4.39453125,1.96E+08
192.168.43.159,-0.020996094,0.9765625,-0.149414063,-1.770019531,4.821777344,4.211425781,1.96E+08
192.168.43.159,-0.053710938,0.979492188,-0.150390625,-1.342773438,4.028320313,3.41796875,1.96E+08
192.168.43.159,-0.132324219,0.979980469,-0.169433594,-1.892089844,-0.854492188,3.662109375,1.96E+08
192.168.43.159,-0.098144531,0.982421875,-0.15234375,-3.479003906,-4.455566406,4.150390625,1.96E+08
192.168.43.159,-0.054199219,0.959472656,-0.145996094,-5.065917969,-0.854492188,4.333496094,1.96E+08
192.168.43.159,0.008789063,0.981933594,-0.155761719,-5.920410156,0.9765625,4.150390625,1.96E+08
192.168.43.159,-0.062988281,1.000976563,-0.189941406,-7.446289063,5.981445313,4.211425781,1.96E+08
192.168.43.159,-0.058105469,0.977539063,-0.1796875,-10.19287109,2.075195313,4.39453125,1.96E+08
192.168.43.159,-0.039550781,0.986816406,-0.178222656,-13.79394531,-2.9296875,5.37109375,1.96E+08
192.168.43.159,-0.005371094,0.983398438,-0.08203125,-14.6484375,4.272460938,5.981445313,1.96E+08
192.168.43.159,-0.017089844,0.924316406,-0.077148438,-13.79394531,8.056640625,6.286621094,1.96E+08
192.168.43.159,-0.073730469,1.012695313,-0.131347656,-11.77978516,3.051757813,5.493164063,1.96E+08
192.168.43.159,-0.182128906,1.010742188,-0.256347656,-16.72363281,1.647949219,4.943847656,1.96E+08
192.168.43.159,-0.069335938,1.045898438,-0.111328125,-21.17919922,-4.638671875,6.713867188,1.96E+08
192.168.43.159,-0.11328125,1.036132813,-0.104980469,-24.35302734,-1.953125,7.202148438,1.97E+08
192.168.43.159,0.129394531,0.922851563,-0.008300781,-22.70507813,-10.19287109,6.713867188,1.97E+08
192.168.43.159,0.129394531,0.941894531,0.085449219,-14.46533203,-7.934570313,7.507324219,1.97E+08
192.168.43.159,-0.129882813,1.000488281,-0.024414063,-8.850097656,-5.065917969,6.469726563,1.97E+08
192.168.43.159,-0.104492188,1.038574219,-0.115234375,-9.704589844,-29.90722656,5.554199219,1.97E+08
192.168.43.159,-0.01171875,1.106933594,-0.16796875,-15.31982422,-46.75292969,6.225585938,1.97E+08
192.168.43.159,0.247070313,0.846191406,-0.067382813,-24.16992188,-44.37255859,8.728027344,1.97E+08
192.168.43.159,0.266113281,0.703613281,0.237792969,-14.09912109,-7.751464844,10.19287109,1.97E+08
192.168.43.159,-0.12890625,0.931152344,0.290527344,-6.042480469,14.46533203,11.53564453,1.97E+08
192.168.43.159,-0.559082031,1.20703125,-0.101074219,-11.16943359,-14.83154297,6.286621094,1.97E+08
192.168.43.159,-0.212890625,1.312011719,-0.25390625,-21.66748047,-60.18066406,1.281738281,1.97E+08
192.168.43.159,0.611816406,1.344726563,0.302734375,-40.28320313,-60.05859375,11.90185547,1.97E+08
192.168.43.159,0.541503906,1.583496094,0.731933594,-70.61767578,-0.610351563,21.17919922,1.97E+08
192.168.43.159,0.203125,1.216796875,0.529296875,-135.559082,25.14648438,28.01513672,1.97E+08
192.168.43.159,0.253417969,0.667480469,0.630371094,-160.5834961,-26.00097656,33.203125,1.97E+08
192.168.43.159,0.3671875,0.990234375,0.873046875,-138.1225586,-20.01953125,37.65869141,1.97E+08
192.168.43.159,0.520996094,1.107910156,1.102539063,-155.0292969,-15.80810547,47.30224609,1.97E+08
192.168.43.159,0.515625,1.066894531,1.068847656,-183.2885742,-7.873535156,59.50927734,1.97E+08
192.168.43.159,0.506835938,0.796875,0.853027344,-196.4111328,-4.028320313,80.32226563,1.97E+08
192.168.43.159,0.552734375,0.672851563,0.606445313,-198.9746094,-2.197265625,97.96142578,1.97E+08
192.168.43.159,0.606445313,0.575195313,0.630371094,-184.5703125,2.197265625,112.5488281,1.97E+08
192.168.43.159,0.437011719,0.83203125,0.55859375,-174.987793,12.63427734,117.9199219,1.97E+08
192.168.43.159,0.334472656,0.838378906,0.565917969,-171.7529297,14.03808594,118.1030273,1.97E+08
192.168.43.159,0.244628906,0.7578125,0.573730469,-161.4379883,16.41845703,117.4316406,1.97E+08
192.168.43.159,0.185546875,0.647460938,0.596679688,-150.5737305,9.765625,112.0605469,1.97E+08
192.168.43.159,0.258300781,0.622558594,0.619140625,-140.3808594,-7.32421875,102.8442383,1.97E+08
192.168.43.159,0.293457031,0.721679688,0.61328125,-127.746582,-14.6484375,91.12548828,1.97E+08
192.168.43.159,0.200683594,0.756835938,0.571289063,-114.3798828,-9.582519531,78.55224609,1.97E+08
192.168.43.159,0.150390625,0.6953125,0.5390625,-96.98486328,-8.422851563,68.17626953,1.97E+08
192.168.43.159,0.133789063,0.62109375,0.528320313,-83.984375,-9.460449219,63.04931641,1.97E+08
192.168.43.159,0.188964844,0.567382813,0.58984375,-76.47705078,-7.995605469,58.77685547,1.97E+08
192.168.43.159,0.245117188,0.641113281,0.663085938,-67.3828125,6.958007813,53.7109375,1.97E+08
192.168.43.159,0.206542969,0.673339844,0.697265625,-64.88037109,13.54980469,46.93603516,1.97E+08
192.168.43.159,0.112304688,0.627441406,0.661132813,-65.85693359,5.615234375,43.09082031,1.97E+08
192.168.43.159,0.073730469,0.542480469,0.619140625,-67.56591797,-6.408691406,35.03417969,1.97E+08
192.168.43.159,0.113769531,0.487792969,0.641601563,-60.36376953,-9.521484375,24.29199219,1.97E+08
192.168.43.159,0.166503906,0.459960938,0.686523438,-49.49951172,8.911132813,20.56884766,1.97E+08
192.168.43.159,0.1796875,0.499023438,0.694824219,-35.52246094,32.53173828,19.89746094,1.97E+08
192.168.43.159,0.280273438,0.365722656,0.678222656,-26.61132813,25.08544922,21.484375,1.97E+08
192.168.43.159,0.233398438,0.673828125,0.630859375,7.019042969,28.44238281,20.5078125,1.97E+08
192.168.43.159,0.137695313,0.537597656,0.736816406,-8.605957031,21.484375,4.028320313,1.97E+08
192.168.43.159,0.1953125,0.525878906,0.780273438,0.244140625,24.10888672,-1.586914063,1.97E+08
192.168.43.159,0.333496094,0.545898438,0.768066406,11.84082031,27.03857422,1.159667969,1.97E+08
192.168.43.159,0.28515625,0.409667969,0.729492188,-0.061035156,27.64892578,-1.708984375,1.97E+08
192.168.43.159,0.249511719,0.479492188,0.674316406,5.187988281,18.49365234,-6.8359375,1.97E+08
192.168.43.159,0.4296875,0.302734375,0.67578125,8.544921875,7.385253906,-8.178710938,1.97E+08
192.168.43.159,0.510253906,0.278320313,0.731933594,16.23535156,15.07568359,-5.249023438,1.97E+08
192.168.43.159,0.473632813,0.3828125,0.7109375,11.35253906,26.48925781,-1.831054688,1.97E+08
192.168.43.159,0.434570313,0.296386719,0.70703125,7.32421875,22.27783203,-4.455566406,1.97E+08
192.168.43.159,0.432617188,0.381347656,0.703613281,18.00537109,28.93066406,-2.807617188,1.97E+08
192.168.43.159,0.394042969,0.353027344,0.684570313,13.00048828,36.01074219,1.586914063,1.98E+08
192.168.43.159,0.314941406,0.3515625,0.727539063,13.12255859,36.86523438,3.173828125,1.98E+08
192.168.43.159,0.248535156,0.354003906,0.680664063,11.41357422,34.54589844,1.46484375,1.98E+08
192.168.43.159,0.208984375,0.358886719,0.616210938,14.09912109,26.30615234,-0.854492188,1.98E+08
192.168.43.159,0.186035156,0.34375,0.585449219,16.96777344,20.69091797,-2.685546875,1.98E+08
192.168.43.159,0.229980469,0.293945313,0.531738281,19.65332031,1.831054688,-5.737304688,1.98E+08
192.168.43.159,0.213378906,0.197265625,0.51171875,27.22167969,-5.493164063,-8.7890625,1.98E+08
192.168.43.159,0.145996094,0.192382813,0.514160156,43.57910156,-6.530761719,-11.90185547,1.98E+08
192.168.43.159,1.570800781,1.298828125,2.58984375,50.35400391,18.85986328,-5.676269531,1.98E+08
192.168.43.159,0.680175781,2.354980469,2.830566406,-51.08642578,133.8500977,46.26464844,1.98E+08
192.168.43.159,-0.503417969,-1.434082031,-0.696289063,-165.8935547,-47.48535156,-2.807617188,1.98E+08
192.168.43.159,0.750488281,-0.333984375,0.574707031,-50.41503906,-15.01464844,28.3203125,1.98E+08
192.168.43.159,0.379394531,0.717285156,1.822753906,-39.42871094,92.22412109,12.63427734,1.98E+08
192.168.43.159,0.089355469,0.092773438,1.317382813,-63.41552734,48.88916016,14.6484375,1.98E+08
192.168.43.159,0.274414063,-0.066894531,0.83984375,-45.83740234,-28.07617188,10.07080078,1.98E+08
192.168.43.159,0.520507813,0.249023438,0.861328125,-40.64941406,-11.84082031,1.586914063,1.98E+08
192.168.43.159,0.086914063,0.168457031,0.906738281,-37.96386719,47.24121094,7.385253906,1.98E+08
192.168.43.159,-0.040527344,0.3671875,0.816894531,-24.90234375,25.93994141,17.94433594,1.98E+08
192.168.43.159,0.338867188,0.512695313,0.9453125,-33.75244141,-22.76611328,17.15087891,1.98E+08
192.168.43.159,0.395996094,0.439453125,0.985351563,-46.26464844,3.540039063,17.21191406,1.98E+08
192.168.43.159,0.18359375,0.352539063,0.819335938,-47.48535156,23.68164063,16.72363281,1.98E+08
192.168.43.159,0.104003906,0.334960938,0.610351563,-49.37744141,14.58740234,15.74707031,1.98E+08
192.168.43.159,0.239746094,0.399902344,0.877929688,-50.96435547,24.04785156,15.93017578,1.98E+08
192.168.43.159,0.221191406,0.255371094,0.946289063,-54.01611328,32.47070313,15.74707031,1.98E+08
192.168.43.159,0.182128906,0.241699219,0.884765625,-48.03466797,37.90283203,19.10400391,1.98E+08
192.168.43.159,0.203125,0.216308594,1.030273438,-50.96435547,31.00585938,19.16503906,1.98E+08
192.168.43.159,0.157714844,0.11328125,1.07421875,-52.734375,40.71044922,20.38574219,1.98E+08
192.168.43.159,0.079101563,-0.073242188,1.099609375,-58.41064453,43.9453125,19.34814453,1.98E+08
192.168.43.159,0.1171875,-0.094726563,1.209960938,-40.83251953,37.17041016,24.10888672,1.98E+08
192.168.43.159,0.037597656,-0.142578125,1.270507813,-38.0859375,36.98730469,20.69091797,1.98E+08
192.168.43.159,-0.114257813,-0.109863281,1.266601563,-39.24560547,31.31103516,15.44189453,1.98E+08
192.168.43.159,-0.228027344,-0.091796875,1.199707031,-40.64941406,23.86474609,7.080078125,1.98E+08
192.168.43.159,-0.206542969,-0.006835938,1.050292969,-37.41455078,1.953125,-0.793457031,1.98E+08
192.168.43.159,0.094238281,-0.100097656,1.018066406,-36.92626953,-25.51269531,0.183105469,1.98E+08
192.168.43.159,0.395019531,0.052246094,0.997558594,-30.63964844,-31.25,6.408691406,1.98E+08
192.168.43.159,0.370605469,0.072753906,1.014648438,-35.64453125,4.211425781,4.272460938,1.98E+08
192.168.43.159,-0.005859375,0.052734375,0.977539063,-26.79443359,42.96875,6.042480469,1.98E+08
192.168.43.159,-0.190429688,0.068359375,1.013183594,-28.13720703,41.13769531,7.629394531,1.98E+08
192.168.43.159,-0.050292969,-0.115234375,1.104003906,-33.203125,17.88330078,6.408691406,1.98E+08
192.168.43.159,0.062988281,-0.286621094,1.122558594,-33.26416016,20.08056641,4.8828125,1.98E+08
192.168.43.159,0.005859375,-0.388671875,1.027832031,-25.45166016,27.46582031,4.638671875,1.98E+08
192.168.43.159,-0.015625,-0.314453125,1.082519531,-20.69091797,24.4140625,4.943847656,1.98E+08
192.168.43.159,-0.03515625,-0.227539063,1.057617188,-19.16503906,20.69091797,5.249023438,1.98E+08
192.168.43.159,-0.073730469,-0.098144531,0.971679688,-14.58740234,19.28710938,4.821777344,1.98E+08
192.168.43.159,-0.066894531,-0.029296875,0.934570313,-12.75634766,19.65332031,3.90625,1.98E+08
192.168.43.159,-0.004394531,-0.057617188,1.011230469,-14.89257813,10.98632813,0.9765625,1.98E+08
192.168.43.159,0.096191406,-0.048828125,1.071289063,-15.01464844,5.126953125,-3.41796875,1.98E+08
192.168.43.159,0.08203125,-0.028320313,0.895996094,-15.80810547,5.065917969,-6.713867188,1.98E+08
192.168.43.159,0.197265625,-0.041503906,0.926757813,-15.01464844,-3.601074219,-8.30078125,1.98E+08
192.168.43.159,0.337890625,-0.115234375,0.993164063,-17.08984375,-7.202148438,-4.8828125,1.98E+08
192.168.43.159,0.293945313,-0.190917969,0.966796875,-18.43261719,-1.403808594,2.9296875,1.99E+08
192.168.43.159,0.228515625,-0.178222656,1.01953125,-12.87841797,2.990722656,10.25390625,1.99E+08
192.168.43.159,0.107421875,-0.083007813,1.013183594,-8.483886719,9.155273438,15.80810547,1.99E+08
192.168.43.159,-0.008789063,0.014648438,0.953613281,-11.47460938,14.70947266,17.27294922,1.99E+08
192.168.43.159,-0.051269531,-0.041503906,0.974609375,-16.72363281,18.43261719,16.66259766,1.99E+08
192.168.43.159,-0.069335938,-0.112304688,1.037109375,-17.15087891,19.65332031,16.66259766,1.99E+08
192.168.43.159,-0.091308594,-0.204101563,1.024414063,-16.96777344,17.15087891,14.22119141,1.99E+08
192.168.43.159,-0.108398438,-0.241210938,1.03515625,-15.44189453,10.86425781,9.460449219,1.99E+08
192.168.43.159,-0.1015625,-0.201171875,1.030273438,-13.18359375,4.333496094,6.042480469,1.99E+08
192.168.43.159,-0.067382813,-0.147460938,1.002929688,-12.75634766,-0.549316406,3.845214844,1.99E+08
192.168.43.159,-0.009277344,-0.150878906,0.984375,-13.24462891,-2.136230469,1.281738281,1.99E+08
192.168.43.159,0.078613281,-0.21484375,1.008300781,-13.73291016,-2.624511719,0.122070313,1.99E+08
192.168.43.159,0.130371094,-0.261230469,1.004882813,-13.00048828,1.281738281,3.173828125,1.99E+08
192.168.43.159,0.080566406,-0.265625,0.991699219,-12.51220703,7.873535156,7.690429688,1.99E+08
192.168.43.159,-0.018066406,-0.608886719,1.10546875,-13.73291016,5.676269531,9.765625,1.99E+08
192.168.43.159,0.040527344,-0.286621094,0.9765625,-3.662109375,-11.35253906,11.65771484,1.99E+08
192.168.43.159,0.004394531,-0.138183594,0.882324219,0.793457031,0.9765625,6.408691406,1.99E+08
192.168.43.159,-0.042480469,-0.248046875,1.075683594,-4.699707031,2.502441406,5.065917969,1.99E+08
192.168.43.159,0.053710938,-0.218261719,0.963867188,1.831054688,-5.310058594,8.056640625,1.99E+08
192.168.43.159,-0.009277344,-0.277832031,0.950683594,-0.183105469,3.662109375,4.821777344,1.99E+08
192.168.43.159,-0.039550781,-0.296875,1.018554688,0.183105469,3.662109375,2.9296875,1.99E+08
192.168.43.159,-0.049316406,-0.276367188,0.958984375,1.525878906,1.403808594,1.403808594,1.99E+08
192.168.43.159,-0.117675781,-0.262695313,0.977539063,1.586914063,3.051757813,-1.037597656,1.99E+08
192.168.43.159,-0.083496094,-0.268066406,0.98828125,2.807617188,0.183105469,-3.173828125,1.99E+08
192.168.43.159,-0.034667969,-0.298339844,0.969238281,2.746582031,-0.183105469,-4.211425781,1.99E+08
192.168.43.159,0.033203125,-0.317382813,0.999023438,3.41796875,-2.258300781,-4.211425781,1.99E+08
192.168.43.159,0.058105469,-0.286621094,1,4.516601563,-2.563476563,-3.784179688,1.99E+08
192.168.43.159,0.034179688,-0.237304688,0.970703125,4.8828125,-0.183105469,-2.502441406,1.99E+08
192.168.43.159,0.023925781,-0.198730469,0.982421875,4.455566406,0.671386719,-1.525878906,1.99E+08
192.168.43.159,0.0390625,-0.184082031,0.99609375,3.479003906,-0.183105469,-2.258300781,1.99E+08
192.168.43.159,0.026367188,-0.205078125,0.968261719,2.746582031,0.732421875,-2.563476563,1.99E+08
192.168.43.159,-0.007324219,-0.205078125,1.005371094,3.234863281,1.342773438,-2.258300781,1.99E+08
192.168.43.159,-0.030273438,-0.225585938,0.979003906,2.502441406,0.671386719,-2.868652344,1.99E+08
192.168.43.159,-0.026855469,-0.266601563,0.976074219,1.770019531,-1.281738281,-4.577636719,1.99E+08
192.168.43.159,-0.013183594,-0.303222656,1.035644531,1.892089844,-2.136230469,-5.493164063,1.99E+08
192.168.43.159,-0.0390625,-0.331542969,0.999023438,3.845214844,0.183105469,-5.37109375,1.99E+08
192.168.43.159,-0.032714844,-0.310058594,0.999023438,6.713867188,-0.793457031,-5.859375,1.99E+08
192.168.43.159,0.019042969,-0.282226563,1.000488281,8.728027344,-4.516601563,-7.32421875,1.99E+08
192.168.43.159,0.060546875,-0.254882813,0.993164063,9.948730469,-6.591796875,-8.666992188,1.99E+08
192.168.43.159,0.001953125,-0.291015625,1.026367188,12.45117188,-2.746582031,-6.408691406,1.99E+08
192.168.43.159,-0.020507813,-0.293945313,1.009765625,14.58740234,-2.868652344,-5.737304688,1.99E+08
192.168.43.159,-0.017578125,-0.258789063,0.983886719,16.29638672,-3.723144531,-6.652832031,1.99E+08
192.168.43.159,4.88E-04,-0.20703125,1.005859375,17.578125,-5.37109375,-7.202148438,1.99E+08
192.168.43.159,0,-0.170410156,1.014648438,17.51708984,-5.676269531,-7.202148438,1.99E+08
192.168.43.159,-0.017578125,-0.170898438,0.993164063,17.39501953,-3.173828125,-7.568359375,1.99E+08
192.168.43.159,-0.032226563,-0.173339844,1.006347656,17.76123047,-2.136230469,-8.239746094,1.99E+08
192.168.43.159,-0.008789063,-0.169433594,0.9921875,17.21191406,-5.310058594,-9.033203125,1.99E+08
192.168.43.159,0.033203125,-0.163085938,0.998046875,16.23535156,-7.019042969,-9.887695313,1.99E+08
192.168.43.159,0.071777344,-0.165527344,0.984863281,15.625,-6.225585938,-9.521484375,1.99E+08
192.168.43.159,0.103027344,-0.157226563,0.987792969,15.13671875,-4.089355469,-7.629394531,2.00E+08
192.168.43.159,0.111328125,-0.168945313,0.987304688,14.03808594,-0.48828125,-6.042480469,2.00E+08
192.168.43.159,0.086425781,-0.158691406,0.984375,14.70947266,2.868652344,-3.723144531,2.00E+08
192.168.43.159,0.077636719,-0.160644531,0.98046875,13.97705078,2.868652344,-1.892089844,2.00E+08
192.168.43.159,0.045410156,-0.155273438,0.985839844,13.42773438,4.455566406,-0.48828125,2.00E+08
192.168.43.159,-0.012695313,-0.153320313,0.986328125,12.93945313,6.958007813,-0.183105469,2.00E+08
192.168.43.159,-0.041992188,-0.156738281,0.999511719,13.24462891,7.751464844,-0.183105469,2.00E+08
192.168.43.159,-0.051757813,-0.185546875,1.007324219,13.36669922,7.263183594,0.122070313,2.00E+08
192.168.43.159,-0.041503906,-0.194335938,1.023925781,14.22119141,5.065917969,-0.305175781,2.00E+08
192.168.43.159,-0.020996094,-0.181640625,1.028320313,15.625,1.708984375,-2.075195313,2.00E+08
192.168.43.159,-0.008300781,-0.184570313,1.025878906,16.84570313,-1.098632813,-4.760742188,2.00E+08
192.168.43.159,0.012695313,-0.19140625,1.038085938,18.61572266,-4.089355469,-6.34765625,2.00E+08
192.168.43.159,0.030273438,-0.157226563,1.034667969,20.69091797,-7.080078125,-7.019042969,2.00E+08
192.168.43.159,0.053710938,-0.129882813,1.024414063,21.91162109,-7.629394531,-7.385253906,2.00E+08
192.168.43.159,0.054199219,-0.106445313,1.021972656,24.53613281,-4.028320313,-4.821777344,2.00E+08
192.168.43.159,0.057617188,-0.118164063,1.040527344,24.78027344,-3.112792969,-2.746582031,2.00E+08
192.168.43.159,0.051269531,-0.115722656,1.041992188,26.67236328,-2.44140625,-1.831054688,2.00E+08
192.168.43.159,0.030761719,-0.072265625,1.0390625,28.93066406,-2.868652344,-2.197265625,2.00E+08
192.168.43.159,0.004394531,-0.002929688,1.018066406,31.06689453,-3.234863281,-3.356933594,2.00E+08
192.168.43.159,-0.024414063,0.068359375,0.998535156,28.99169922,-2.868652344,-5.859375,2.00E+08
192.168.43.159,-0.041503906,0.083007813,0.978515625,29.05273438,-3.540039063,-6.958007813,2.00E+08
192.168.43.159,-0.036621094,0.018554688,1.0078125,27.22167969,-6.164550781,-6.286621094,2.00E+08
192.168.43.159,0.002441406,-0.086425781,1.034179688,22.94921875,-14.16015625,-7.263183594,2.00E+08
192.168.43.159,0.060058594,-0.139648438,1.048828125,25.02441406,-16.90673828,-8.361816406,2.00E+08
192.168.43.159,0.075195313,-0.101074219,1.032226563,30.51757813,-11.96289063,-9.094238281,2.00E+08
192.168.43.159,0.061523438,-0.049804688,1.028808594,33.32519531,-5.920410156,-8.605957031,2.00E+08
192.168.43.159,0.058105469,0.026855469,1.022949219,35.03417969,-5.676269531,-7.629394531,2.00E+08
192.168.43.159,0.048339844,0.026367188,1.001953125,33.26416016,-5.798339844,-8.483886719,2.00E+08
192.168.43.159,0.045410156,0.076171875,0.993652344,35.82763672,-3.601074219,-7.568359375,2.00E+08
192.168.43.159,0.053222656,0.091308594,0.993164063,33.56933594,-4.8828125,-6.408691406,2.00E+08
192.168.43.159,0.095703125,0.006347656,1.023925781,29.90722656,-7.263183594,-5.920410156,2.00E+08
192.168.43.159,0.116210938,0.038085938,1.013671875,34.54589844,-4.760742188,-3.173828125,2.00E+08
192.168.43.159,0.110839844,0.042480469,1.006347656,33.203125,-1.098632813,-1.46484375,2.00E+08
192.168.43.159,0.063964844,0.043945313,1.030273438,34.85107422,6.286621094,-1.403808594,2.00E+08
192.168.43.159,-0.009277344,0.128417969,1.020996094,40.46630859,12.93945313,-0.48828125,2.00E+08
192.168.43.159,-0.039550781,0.165527344,0.998046875,40.40527344,9.094238281,-0.732421875,2.00E+08
192.168.43.159,-0.014648438,0.198730469,0.981933594,38.57421875,2.136230469,-1.708984375,2.00E+08
192.168.43.159,-0.002441406,0.148925781,1.020019531,33.32519531,1.159667969,-4.150390625,2.00E+08
192.168.43.159,0.009277344,0.067871094,1.0546875,35.33935547,-2.075195313,-6.225585938,2.00E+08
192.168.43.159,0.030273438,0.148925781,1.021484375,45.34912109,-6.225585938,-6.591796875,2.00E+08
192.168.43.159,0.054199219,0.260253906,0.965820313,40.95458984,-9.948730469,-7.690429688,2.00E+08
192.168.43.159,0.052246094,0.202636719,0.9765625,40.16113281,-6.530761719,-9.216308594,2.00E+08
192.168.43.159,0.055175781,0.232421875,0.967773438,50.29296875,-3.234863281,-8.850097656,2.00E+08
192.168.43.159,0.105957031,0.147949219,0.999023438,39.91699219,-10.00976563,-9.582519531,2.00E+08
192.168.43.159,0.130859375,0.192382813,0.984863281,44.86083984,-9.765625,-9.216308594,2.00E+08
192.168.43.159,0.069335938,0.349121094,0.953613281,48.58398438,-0.671386719,-9.27734375,2.00E+08
192.168.43.159,-0.018554688,0.265136719,0.957519531,40.16113281,2.014160156,-13.18359375,2.00E+08
192.168.43.159,-0.021972656,0.308105469,0.95703125,49.13330078,-10.25390625,-14.40429688,2.00E+08
192.168.43.159,0.043457031,0.276855469,0.963378906,40.0390625,-27.22167969,-15.13671875,2.00E+08
192.168.43.159,0.155273438,0.270996094,0.980957031,41.93115234,-29.66308594,-13.24462891,2.00E+08
192.168.43.159,-0.024414063,0.439453125,0.888183594,48.03466797,-12.45117188,-14.09912109,2.01E+08
192.168.43.159,0.055664063,0.365722656,0.876464844,44.86083984,-23.92578125,-14.09912109,2.01E+08
192.168.43.159,0.189941406,0.426757813,0.893554688,44.86083984,-28.99169922,-11.29150391,2.01E+08
192.168.43.159,0.205566406,0.425292969,0.92578125,40.40527344,-17.76123047,-9.033203125,2.01E+08
192.168.43.159,0.080078125,0.494628906,0.883789063,44.98291016,-3.41796875,-8.361816406,2.01E+08
192.168.43.159,-0.041992188,0.470703125,0.883300781,46.14257813,-2.563476563,-11.71875,2.01E+08
192.168.43.159,0.080078125,0.495605469,0.836425781,45.95947266,-21.78955078,-13.18359375,2.01E+08
192.168.43.159,0.322753906,0.398925781,0.889648438,35.58349609,-36.37695313,-10.13183594,2.01E+08
192.168.43.159,0.331054688,0.45703125,0.875,34.97314453,-19.28710938,-8.30078125,2.01E+08
192.168.43.159,0.116210938,0.546875,0.827148438,41.56494141,3.356933594,-6.469726563,2.01E+08
192.168.43.159,0.006347656,0.602539063,0.799804688,41.56494141,6.530761719,-7.263183594,2.01E+08
192.168.43.159,0.08984375,0.476074219,0.86328125,33.56933594,-0.48828125,-8.7890625,2.01E+08
192.168.43.159,0.139160156,0.450683594,0.854492188,33.26416016,-3.356933594,-8.178710938,2.01E+08
192.168.43.159,0.130859375,0.554199219,0.8046875,34.30175781,-6.958007813,-5.798339844,2.01E+08
192.168.43.159,0.11328125,0.621582031,0.779785156,29.72412109,-4.333496094,-3.051757813,2.01E+08
192.168.43.159,0.079101563,0.614746094,0.814941406,29.11376953,12.32910156,-3.234863281,2.01E+08
192.168.43.159,9.77E-04,0.420410156,0.841308594,15.68603516,9.27734375,-6.8359375,2.01E+08
192.168.43.159,0.111328125,0.516113281,0.827636719,24.90234375,-3.967285156,-5.554199219,2.01E+08
192.168.43.159,0.208007813,0.625488281,0.759277344,24.47509766,-9.338378906,-5.004882813,2.01E+08
192.168.43.159,0.254882813,0.604003906,0.749023438,19.40917969,-1.281738281,-3.356933594,2.01E+08
192.168.43.159,0.138183594,0.573730469,0.786621094,18.18847656,16.35742188,-1.770019531,2.01E+08
192.168.43.159,0.064453125,0.571289063,0.815917969,16.66259766,16.90673828,-0.48828125,2.01E+08
192.168.43.159,0.03125,0.643066406,0.796386719,16.11328125,13.00048828,0.183105469,2.01E+08
192.168.43.159,0.01953125,0.610839844,0.791015625,11.59667969,7.385253906,-0.854492188,2.01E+08
192.168.43.159,0.026367188,0.575683594,0.782226563,12.14599609,4.089355469,-1.892089844,2.01E+08
192.168.43.159,0.037597656,0.560058594,0.801269531,12.14599609,1.037597656,-2.624511719,2.01E+08
192.168.43.159,0.064941406,0.591796875,0.797851563,11.23046875,-5.065917969,-1.647949219,2.01E+08
192.168.43.159,0.099609375,0.610839844,0.783203125,11.16943359,-5.493164063,-0.732421875,2.01E+08
192.168.43.159,0.061523438,0.626953125,0.799804688,10.19287109,0.793457031,-1.586914063,2.01E+08
192.168.43.159,4.88E-04,0.611328125,0.766113281,10.86425781,0.610351563,-3.234863281,2.01E+08
192.168.43.159,0.104492188,0.538085938,0.791503906,7.385253906,-13.671875,-2.990722656,2.01E+08
192.168.43.159,0.166503906,0.561035156,0.865234375,8.972167969,-13.00048828,-0.9765625,2.01E+08
192.168.43.159,0.022949219,0.638671875,0.799316406,14.40429688,-0.793457031,-2.563476563,2.01E+08
192.168.43.159,0.065429688,0.668457031,0.762207031,13.671875,-14.83154297,-3.845214844,2.01E+08
192.168.43.159,0.186035156,0.647949219,0.765625,14.40429688,-19.16503906,-2.502441406,2.01E+08
192.168.43.159,0.138183594,0.62109375,0.7578125,13.36669922,-5.432128906,-1.586914063,2.01E+08
192.168.43.159,0.150878906,0.590820313,0.788085938,13.24462891,-3.479003906,-0.854492188,2.01E+08
192.168.43.159,0.172363281,0.640136719,0.783203125,16.47949219,-5.004882813,-0.183105469,2.01E+08
192.168.43.159,0.097167969,0.69921875,0.743164063,17.76123047,2.075195313,-0.671386719,2.01E+08
192.168.43.159,0.068359375,0.633300781,0.73828125,13.06152344,1.831054688,-0.671386719,2.01E+08
192.168.43.159,0.037109375,0.619140625,0.7265625,12.20703125,-1.953125,-1.525878906,2.01E+08
192.168.43.159,0.170410156,0.610351563,0.763183594,11.29150391,-15.13671875,-1.098632813,2.01E+08
192.168.43.159,0.200683594,0.614746094,0.760253906,12.39013672,-15.625,-0.610351563,2.01E+08
192.168.43.159,0.096191406,0.633789063,0.761230469,13.73291016,-4.699707031,-1.220703125,2.01E+08
192.168.43.159,-0.010253906,0.645507813,0.748535156,14.40429688,2.9296875,-1.953125,2.01E+08
192.168.43.159,0.020507813,0.651855469,0.755371094,11.96289063,-5.310058594,-2.624511719,2.01E+08
192.168.43.159,0.145019531,0.661132813,0.767578125,10.62011719,-13.73291016,-4.028320313,2.01E+08
192.168.43.159,0.24609375,0.639160156,0.711425781,12.08496094,-9.521484375,-4.699707031,2.01E+08
192.168.43.159,0.270507813,0.633300781,0.681640625,11.04736328,-6.896972656,-3.845214844,2.01E+08
192.168.43.159,0.193359375,0.716796875,0.678710938,10.80322266,-3.234863281,-3.479003906,2.01E+08
192.168.43.159,0.202636719,0.740234375,0.699707031,9.033203125,-2.380371094,-2.319335938,2.02E+08
192.168.43.159,0.16796875,0.711914063,0.715820313,7.934570313,5.554199219,-0.9765625,2.02E+08
192.168.43.159,0.056152344,0.688964844,0.735351563,9.094238281,14.46533203,-0.610351563,2.02E+08
192.168.43.159,0.009277344,0.652832031,0.750976563,7.568359375,8.605957031,-1.281738281,2.02E+08
192.168.43.159,0.067871094,0.666503906,0.746582031,9.948730469,-0.366210938,-2.624511719,2.02E+08
192.168.43.159,0.104980469,0.662597656,0.75,9.948730469,-1.892089844,-3.173828125,2.02E+08
192.168.43.159,0.081054688,0.689453125,0.71875,12.57324219,0.549316406,-3.90625,2.02E+08
192.168.43.159,0.115234375,0.693847656,0.701660156,9.887695313,-2.380371094,-4.333496094,2.02E+08
192.168.43.159,0.171386719,0.681152344,0.722167969,9.826660156,-2.624511719,-3.41796875,2.02E+08
192.168.43.159,0.129394531,0.71484375,0.713867188,12.26806641,2.563476563,-3.41796875,2.02E+08
192.168.43.159,0.096679688,0.716796875,0.684570313,12.08496094,2.502441406,-3.90625,2.02E+08
192.168.43.159,0.137207031,0.6953125,0.674804688,10.00976563,-1.647949219,-4.211425781,2.02E+08
192.168.43.159,0.195800781,0.699707031,0.686035156,8.056640625,-2.014160156,-3.662109375,2.02E+08
192.168.43.159,0.183105469,0.725097656,0.694824219,10.98632813,4.699707031,-2.624511719,2.02E+08
192.168.43.159,0.061523438,0.734375,0.671875,10.13183594,12.45117188,-2.624511719,2.02E+08
192.168.43.159,0.057617188,0.706542969,0.687988281,7.629394531,7.873535156,-3.234863281,2.02E+08
192.168.43.159,0.100097656,0.712890625,0.688964844,7.568359375,2.075195313,-3.967285156,2.02E+08
192.168.43.159,0.128417969,0.716796875,0.6796875,3.90625,-3.234863281,-3.967285156,2.02E+08
192.168.43.159,0.121582031,0.721679688,0.6875,5.493164063,-0.061035156,-4.150390625,2.02E+08
192.168.43.159,0.08203125,0.735839844,0.677246094,7.751464844,3.601074219,-4.455566406,2.02E+08
192.168.43.159,0.076171875,0.716796875,0.701660156,6.042480469,2.502441406,-4.211425781,2.02E+08
192.168.43.159,0.07421875,0.729980469,0.704101563,6.469726563,-0.549316406,-4.150390625,2.02E+08
192.168.43.159,0.078613281,0.739746094,0.709472656,6.958007813,-1.586914063,-4.39453125,2.02E+08
192.168.43.159,0.053710938,0.744140625,0.678222656,7.446289063,0.793457031,-5.676269531,2.02E+08
192.168.43.159,0.083496094,0.740722656,0.650878906,6.225585938,-3.845214844,-6.652832031,2.02E+08
192.168.43.159,0.151855469,0.733398438,0.65625,0.793457031,-11.41357422,-5.859375,2.02E+08
192.168.43.159,0.173339844,0.763183594,0.654296875,2.624511719,-6.164550781,-4.089355469,2.02E+08
192.168.43.159,0.118164063,0.740722656,0.669433594,2.014160156,4.699707031,-3.662109375,2.02E+08
192.168.43.159,0.0703125,0.732910156,0.665527344,0.854492188,5.37109375,-3.540039063,2.02E+08
192.168.43.159,0.108398438,0.747558594,0.676757813,0.854492188,-0.366210938,-2.807617188,2.02E+08
192.168.43.159,0.116699219,0.737792969,0.676269531,1.159667969,1.892089844,-2.563476563,2.02E+08
192.168.43.159,0.103027344,0.736328125,0.685546875,1.342773438,4.943847656,-2.197265625,2.02E+08
192.168.43.159,0.032226563,0.727050781,0.681152344,1.46484375,5.432128906,-2.258300781,2.02E+08
192.168.43.159,0.043945313,0.711914063,0.709472656,2.075195313,-1.586914063,-2.685546875,2.02E+08
192.168.43.159,0.082519531,0.691894531,0.699707031,2.624511719,-6.774902344,-2.9296875,2.02E+08
192.168.43.159,0.095703125,0.716308594,0.680175781,4.699707031,-4.39453125,-2.319335938,2.02E+08
192.168.43.159,0.073242188,0.715820313,0.681640625,5.187988281,0.122070313,-2.502441406,2.02E+08
192.168.43.159,0.08984375,0.708984375,0.692871094,4.577636719,-1.403808594,-2.624511719,2.02E+08
192.168.43.159,0.079589844,0.748535156,0.666992188,5.798339844,-3.662109375,-1.953125,2.02E+08
192.168.43.159,0.07421875,0.778808594,0.630371094,4.028320313,-3.784179688,-1.525878906,2.02E+08
192.168.43.159,0.147460938,0.705078125,0.682128906,-0.427246094,-5.798339844,-0.549316406,2.02E+08
192.168.43.159,0.1328125,0.735351563,0.710449219,4.028320313,0.183105469,0.061035156,2.02E+08
192.168.43.159,0.060058594,0.739257813,0.696289063,7.568359375,5.432128906,0.549316406,2.02E+08
192.168.43.159,0.022460938,0.745117188,0.653808594,8.422851563,0,0,2.02E+08
192.168.43.159,0.051269531,0.742675781,0.639160156,6.408691406,-10.98632813,-1.281738281,2.02E+08
192.168.43.159,0.1953125,0.721191406,0.632324219,3.90625,-18.00537109,-0.48828125,2.02E+08
192.168.43.159,0.229492188,0.7109375,0.666992188,3.784179688,-7.385253906,2.319335938,2.02E+08
192.168.43.159,0.045898438,0.741210938,0.677734375,6.286621094,10.98632813,2.624511719,2.02E+08
192.168.43.159,0.021972656,0.732910156,0.682128906,5.981445313,4.39453125,1.342773438,2.02E+08
192.168.43.159,0.131347656,0.726074219,0.674804688,6.164550781,-8.483886719,1.953125,2.02E+08
192.168.43.159,0.08984375,0.772949219,0.671386719,9.094238281,-1.647949219,2.197265625,2.03E+08
192.168.43.159,0.041015625,0.797363281,0.6171875,8.911132813,1.098632813,1.037597656,2.03E+08
192.168.43.159,0.152832031,0.790039063,0.622070313,4.577636719,-5.37109375,1.892089844,2.03E+08
192.168.43.159,0.126464844,0.783691406,0.606445313,-1.403808594,-1.159667969,2.563476563,2.03E+08
192.168.43.159,0.112792969,0.74609375,0.598144531,-2.685546875,-1.525878906,1.953125,2.03E+08
192.168.43.159,0.204101563,0.724609375,0.686523438,-2.9296875,-8.30078125,3.540039063,2.03E+08
192.168.43.159,0.120117188,0.752929688,0.718261719,2.075195313,3.234863281,4.272460938,2.03E+08
192.168.43.159,0.017089844,0.751464844,0.629394531,3.723144531,9.948730469,1.892089844,2.03E+08
192.168.43.159,0.073242188,0.782714844,0.614746094,2.624511719,-2.502441406,0.854492188,2.03E+08
192.168.43.159,0.161132813,0.765136719,0.633789063,-2.136230469,-8.178710938,0.854492188,2.03E+08
192.168.43.159,0.182128906,0.735839844,0.657226563,-3.41796875,-1.220703125,1.586914063,2.03E+08
192.168.43.159,0.098632813,0.734375,0.657226563,0.244140625,1.220703125,0.854492188,2.03E+08
192.168.43.159,0.104980469,0.761230469,0.62109375,0.244140625,2.807617188,-0.610351563,2.03E+08
192.168.43.159,0.125488281,0.773925781,0.642089844,-1.831054688,3.967285156,-0.854492188,2.03E+08
192.168.43.159,0.119628906,0.720703125,0.664550781,-3.784179688,4.943847656,-1.281738281,2.03E+08
192.168.43.159,0.164550781,0.716796875,0.676269531,-2.807617188,1.037597656,-1.46484375,2.03E+08
192.168.43.159,0.156738281,0.757324219,0.627441406,-0.366210938,2.258300781,-1.953125,2.03E+08
192.168.43.159,0.104492188,0.778320313,0.639648438,-1.281738281,5.859375,-1.892089844,2.03E+08
192.168.43.159,0.041992188,0.758789063,0.682128906,-3.540039063,6.8359375,-2.075195313,2.03E+08
192.168.43.159,0.016601563,0.697753906,0.713378906,-2.9296875,1.647949219,-3.173828125,2.03E+08
192.168.43.159,0.106933594,0.676757813,0.692382813,0.427246094,-9.094238281,-4.699707031,2.03E+08
192.168.43.159,0.133300781,0.723144531,0.647949219,2.9296875,-8.666992188,-4.699707031,2.03E+08
192.168.43.159,0.0546875,0.772460938,0.634277344,2.258300781,1.098632813,-4.455566406,2.03E+08
192.168.43.159,0.067871094,0.757324219,0.654296875,-1.831054688,-2.014160156,-4.272460938,2.03E+08
192.168.43.159,0.174316406,0.685058594,0.700683594,-3.723144531,-10.7421875,-3.967285156,2.03E+08
192.168.43.159,0.184082031,0.666015625,0.701660156,0.305175781,-7.8125,-4.150390625,2.03E+08
192.168.43.159,0.111816406,0.760742188,0.644042969,5.859375,0.915527344,-4.211425781,2.03E+08
192.168.43.159,0.057617188,0.860839844,0.576171875,3.723144531,6.225585938,-3.967285156,2.03E+08
192.168.43.159,0.094726563,0.761230469,0.657714844,-6.408691406,1.831054688,-3.662109375,2.03E+08
192.168.43.159,0.102539063,0.706054688,0.684570313,-5.187988281,-3.41796875,-3.967285156,2.03E+08
192.168.43.159,0.217773438,0.716796875,0.693359375,-1.403808594,-15.01464844,-3.356933594,2.03E+08
192.168.43.159,0.167480469,0.769042969,0.648925781,3.662109375,-1.708984375,-2.807617188,2.03E+08
192.168.43.159,0.0703125,0.809570313,0.602050781,3.112792969,10.80322266,-1.892089844,2.03E+08
192.168.43.159,0.039550781,0.763183594,0.627441406,-3.051757813,9.399414063,-1.281738281,2.03E+08
192.168.43.159,0.084960938,0.686035156,0.703613281,-6.469726563,-1.098632813,-0.48828125,2.03E+08
192.168.43.159,0.122070313,0.698242188,0.744628906,-1.831054688,-4.699707031,-0.366210938,2.03E+08
192.168.43.159,0.068847656,0.811035156,0.652832031,5.493164063,-0.183105469,-1.159667969,2.03E+08
192.168.43.159,0.049316406,0.811523438,0.598144531,3.173828125,3.479003906,-2.319335938,2.03E+08
192.168.43.159,0.134277344,0.741210938,0.612304688,-3.662109375,-2.075195313,-1.953125,2.03E+08
192.168.43.159,0.180664063,0.69140625,0.662109375,-7.629394531,-5.798339844,0.244140625,2.03E+08
192.168.43.159,0.104492188,0.758789063,0.663574219,-3.723144531,-0.244140625,0.854492188,2.03E+08
192.168.43.159,0.118652344,0.791992188,0.654296875,-3.41796875,3.662109375,0.854492188,2.03E+08
192.168.43.159,0.102050781,0.766113281,0.662597656,-6.042480469,11.10839844,0.671386719,2.03E+08
192.168.43.159,0.07421875,0.76953125,0.645507813,-6.34765625,10.55908203,0.305175781,2.03E+08
192.168.43.159,0.083007813,0.811035156,0.618652344,-7.263183594,0.854492188,1.159667969,2.03E+08
192.168.43.159,0.090820313,0.840820313,0.583496094,-13.30566406,-1.159667969,1.098632813,2.03E+08
192.168.43.159,0.119628906,0.782226563,0.61328125,-20.01953125,3.356933594,0.732421875,2.03E+08
192.168.43.159,0.111816406,0.780761719,0.612792969,-23.4375,6.896972656,1.586914063,2.03E+08
192.168.43.159,0.184082031,0.658691406,0.720214844,-32.53173828,7.141113281,2.014160156,2.03E+08
192.168.43.159,0.103515625,0.687988281,0.716796875,-23.68164063,13.61083984,2.197265625,2.04E+08
192.168.43.159,0.015136719,0.790039063,0.657226563,-21.11816406,11.59667969,2.868652344,2.04E+08
192.168.43.159,-0.043457031,0.860839844,0.5625,-27.58789063,9.460449219,0.915527344,2.04E+08
192.168.43.159,0.038085938,0.80859375,0.523925781,-39.0625,1.220703125,-0.732421875,2.04E+08
192.168.43.159,0.340332031,0.605957031,0.745605469,-53.10058594,-9.887695313,2.9296875,2.04E+08
192.168.43.159,0.3359375,0.521484375,0.850585938,-48.95019531,7.141113281,6.774902344,2.04E+08
192.168.43.159,0.073242188,0.626464844,0.803710938,-38.57421875,25.26855469,6.591796875,2.04E+08
192.168.43.159,-0.139160156,0.708007813,0.758789063,-30.33447266,29.23583984,3.723144531,2.04E+08
192.168.43.159,-0.158203125,0.744628906,0.678222656,-34.48486328,13.671875,2.014160156,2.04E+08
192.168.43.159,0.019042969,0.711425781,0.710449219,-44.67773438,-7.385253906,1.831054688,2.04E+08
192.168.43.159,0.150878906,0.622070313,0.772460938,-53.28369141,-8.422851563,1.220703125,2.04E+08
192.168.43.159,0.225585938,0.500488281,0.763671875,-52.49023438,0.854492188,4.760742188,2.04E+08
192.168.43.159,0.280273438,0.411132813,0.912109375,-50.04882813,5.615234375,9.460449219,2.04E+08
192.168.43.159,0.038085938,0.545410156,0.851074219,-38.63525391,20.5078125,9.338378906,2.04E+08
192.168.43.159,-0.166503906,0.738769531,0.836425781,-35.76660156,23.31542969,6.103515625,2.04E+08
192.168.43.159,-0.25,0.902832031,0.677734375,-41.38183594,8.605957031,1.159667969,2.04E+08
192.168.43.159,-0.029785156,0.739257813,0.673828125,-59.87548828,-15.25878906,-1.159667969,2.04E+08
192.168.43.159,0.313964844,0.300292969,0.863769531,-76.23291016,-27.03857422,2.563476563,2.04E+08
192.168.43.159,0.460449219,0.073730469,0.944335938,-66.77246094,-16.66259766,10.80322266,2.04E+08
192.168.43.159,0.338867188,0.229003906,1.004394531,-43.15185547,13.12255859,15.31982422,2.04E+08
192.168.43.159,-0.049316406,0.469238281,0.932128906,-33.14208984,37.53662109,12.57324219,2.04E+08
192.168.43.159,-0.248046875,0.590820313,0.818359375,-34.66796875,27.89306641,8.544921875,2.04E+08
192.168.43.159,-0.104492188,0.451660156,0.9453125,-44.43359375,3.967285156,5.920410156,2.04E+08
192.168.43.159,-0.007324219,0.520507813,0.914550781,-45.83740234,-8.544921875,3.540039063,2.04E+08
192.168.43.159,0.078613281,0.475585938,0.888671875,-47.60742188,-12.02392578,1.586914063,2.04E+08
192.168.43.159,0.155273438,0.403320313,0.901855469,-51.39160156,-8.728027344,2.319335938,2.04E+08
192.168.43.159,0.149414063,0.324707031,0.865234375,-51.87988281,-3.112792969,3.41796875,2.04E+08
192.168.43.159,0.154785156,0.370117188,0.931640625,-48.64501953,-0.305175781,7.568359375,2.04E+08
192.168.43.159,0.0546875,0.381347656,0.922363281,-50.35400391,7.141113281,8.178710938,2.04E+08
192.168.43.159,0.004882813,0.406738281,0.934570313,-52.85644531,7.141113281,8.361816406,2.04E+08
192.168.43.159,0.00390625,0.324707031,0.885742188,-56.03027344,2.075195313,7.507324219,2.04E+08
192.168.43.159,0.060058594,0.211425781,0.947753906,-55.41992188,-3.051757813,6.286621094,2.04E+08
192.168.43.159,0.102539063,0.176757813,0.986328125,-53.40576172,-5.432128906,5.310058594,2.04E+08
192.168.43.159,0.124511719,0.085449219,0.944335938,-51.14746094,-6.286621094,5.981445313,2.04E+08
192.168.43.159,0.147460938,0.134765625,0.99609375,-45.59326172,-3.540039063,7.080078125,2.04E+08
192.168.43.159,0.090332031,0.180175781,0.986816406,-45.65429688,2.746582031,5.676269531,2.04E+08
192.168.43.159,0.028320313,0.210449219,0.976074219,-46.93603516,7.873535156,4.699707031,2.04E+08
192.168.43.159,-0.001464844,0.249511719,0.9609375,-49.07226563,5.676269531,2.746582031,2.04E+08
192.168.43.159,0.036621094,0.235839844,0.943847656,-48.88916016,-2.136230469,2.685546875,2.04E+08
192.168.43.159,0.088378906,0.169921875,0.966308594,-49.43847656,-4.8828125,3.295898438,2.04E+08
192.168.43.159,0.084960938,0.090332031,0.950683594,-50.84228516,-2.563476563,2.258300781,2.04E+08
192.168.43.159,0.139648438,0.0390625,0.952148438,-48.64501953,-5.737304688,3.112792969,2.04E+08
192.168.43.159,0.196289063,0.021484375,0.96875,-46.26464844,-7.8125,3.90625,2.04E+08
192.168.43.159,0.1875,0.012695313,0.996582031,-45.22705078,-6.652832031,4.333496094,2.04E+08
192.168.43.159,0.141113281,-0.013671875,0.995117188,-45.04394531,-1.281738281,5.798339844,2.04E+08
192.168.43.159,0.092285156,-0.084472656,0.971191406,-43.64013672,2.502441406,5.676269531,2.04E+08
192.168.43.159,0.098632813,-0.080566406,1.010253906,-41.19873047,0.549316406,5.615234375,2.04E+08
192.168.43.159,0.088378906,-0.072753906,0.995117188,-39.48974609,-2.197265625,7.385253906,2.04E+08
192.168.43.159,0.054199219,-0.035644531,0.985839844,-36.31591797,-3.173828125,7.32421875,2.04E+08
192.168.43.159,0.068359375,-0.034179688,1.011230469,-35.76660156,-5.737304688,6.530761719,2.05E+08
192.168.43.159,0.0546875,-0.082519531,1.015625,-36.31591797,-5.981445313,4.39453125,2.05E+08
192.168.43.159,0.064941406,-0.100097656,1.002929688,-34.91210938,-7.934570313,1.586914063,2.05E+08
192.168.43.159,0.129882813,-0.074707031,0.982910156,-32.89794922,-9.643554688,0,2.05E+08
192.168.43.159,0.209960938,-0.126464844,1.020507813,-30.70068359,-12.6953125,0.732421875,2.05E+08
192.168.43.159,0.222167969,-0.165527344,1.029785156,-28.62548828,-13.42773438,2.868652344,2.05E+08
192.168.43.159,0.217773438,-0.114746094,0.99609375,-25.14648438,-11.65771484,4.699707031,2.05E+08
192.168.43.159,0.182617188,-0.095214844,0.973632813,-22.52197266,-5.676269531,5.493164063,2.05E+08
192.168.43.159,0.110351563,-0.091308594,1.0078125,-21.60644531,0.305175781,5.065917969,2.05E+08
192.168.43.159,0.07421875,-0.139648438,1.009765625,-21.24023438,-0.183105469,3.90625,2.05E+08
192.168.43.159,0.098144531,-0.16015625,0.999023438,-18.67675781,-5.310058594,2.9296875,2.05E+08
192.168.43.159,0.1171875,-0.158203125,1.022949219,-15.07568359,-10.25390625,3.234863281,2.05E+08
192.168.43.159,0.133300781,-0.1640625,1.04296875,-11.10839844,-10.92529297,3.173828125,2.05E+08
192.168.43.159,0.174804688,-0.237304688,1.0390625,-9.704589844,-8.605957031,3.295898438,2.05E+08
192.168.43.159,0.183105469,-0.301269531,1.052246094,-9.094238281,-4.028320313,3.723144531,2.05E+08
192.168.43.159,0.176269531,-0.3515625,1.016113281,-9.399414063,0.061035156,3.540039063,2.05E+08
192.168.43.159,0.123046875,-0.353515625,1.022949219,-8.605957031,0.793457031,2.9296875,2.05E+08
192.168.43.159,0.135742188,-0.322265625,1.041992188,-8.972167969,-2.502441406,2.014160156,2.05E+08
192.168.43.159,0.183105469,-0.300292969,0.997558594,-8.850097656,-2.685546875,2.624511719,2.05E+08
192.168.43.159,0.190917969,-0.261230469,0.98046875,-9.704589844,2.9296875,3.356933594,2.05E+08
192.168.43.159,0.161132813,-0.1640625,1.01171875,-10.7421875,4.699707031,3.601074219,2.05E+08
192.168.43.159,0.150390625,-0.061035156,0.979492188,-11.16943359,1.525878906,2.868652344,2.05E+08
192.168.43.159,0.149414063,-0.029296875,0.934570313,-11.16943359,0.671386719,2.563476563,2.05E+08
192.168.43.159,0.130371094,-0.040527344,0.932617188,-11.84082031,4.760742188,3.051757813,2.05E+08
192.168.43.159,0.106445313,-0.053710938,0.962890625,-12.63427734,6.103515625,2.990722656,2.05E+08
192.168.43.159,0.224121094,-0.325683594,1.237792969,-13.42773438,6.530761719,2.868652344,2.05E+08
192.168.43.159,0.12890625,-0.400390625,1.257324219,-1.098632813,18.00537109,-0.244140625,2.05E+08
192.168.43.159,0.104492188,-0.308105469,0.722167969,15.74707031,-35.70556641,-10.98632813,2.05E+08
192.168.43.159,0.340332031,-0.307617188,1.052246094,6.103515625,-26.79443359,-10.25390625,2.05E+08
192.168.43.159,0.155761719,-0.361816406,1.137695313,-7.385253906,38.0859375,-0.48828125,2.05E+08
192.168.43.159,-0.138183594,-0.295410156,0.888183594,-2.990722656,36.31591797,6.530761719,2.05E+08
192.168.43.159,-0.110351563,-0.147949219,0.9609375,-6.042480469,-0.9765625,7.995605469,2.05E+08
192.168.43.159,0.135742188,-0.179199219,1.047363281,-16.23535156,-15.68603516,10.19287109,2.05E+08
192.168.43.159,0.189941406,-0.149902344,0.979980469,-11.47460938,-7.141113281,6.958007813,2.05E+08
192.168.43.159,0.249023438,-0.152832031,1.006835938,-12.20703125,-0.610351563,2.563476563,2.05E+08
192.168.43.159,0.225097656,-0.189453125,1.008789063,-12.6953125,9.582519531,-2.197265625,2.05E+08
192.168.43.159,0.146484375,-0.154785156,1.003417969,-6.774902344,10.92529297,-4.577636719,2.05E+08
192.168.43.159,0.094238281,-0.160644531,0.989257813,-6.652832031,9.704589844,-1.831054688,2.05E+08
192.168.43.159,0.059082031,-0.194335938,0.932617188,-6.34765625,7.690429688,1.037597656,2.05E+08
192.168.43.159,0.099609375,-0.208007813,0.956542969,-3.173828125,1.525878906,1.220703125,2.05E+08
192.168.43.159,0.159179688,-0.218261719,1.008300781,-3.051757813,-0.854492188,-0.244140625,2.05E+08
192.168.43.159,0.157714844,-0.229492188,0.984375,-2.563476563,2.44140625,-2.075195313,2.05E+08
192.168.43.159,0.131347656,-0.220214844,0.969726563,-0.671386719,6.164550781,-3.112792969,2.05E+08
192.168.43.159,0.130859375,-0.22265625,0.990722656,-0.915527344,7.8125,-2.624511719,2.05E+08
192.168.43.159,0.129882813,-0.256347656,0.968261719,-2.197265625,6.896972656,-1.831054688,2.05E+08
192.168.43.159,0.139160156,-0.264160156,0.941894531,-0.732421875,6.225585938,-1.098632813,2.05E+08
192.168.43.159,0.156738281,-0.243164063,0.982421875,-0.305175781,10.25390625,-0.305175781,2.05E+08
192.168.43.159,0.147949219,-0.230957031,0.999023438,-1.892089844,12.63427734,0.427246094,2.05E+08
192.168.43.159,0.125488281,-0.219238281,0.990234375,-3.356933594,11.90185547,0.610351563,2.05E+08
192.168.43.159,0.099121094,-0.229492188,0.976074219,-4.028320313,12.51220703,0.244140625,2.05E+08
192.168.43.159,0.079101563,-0.237304688,0.975585938,-2.868652344,13.24462891,-0.427246094,2.06E+08
192.168.43.159,0.067871094,-0.23046875,1.002929688,-2.014160156,14.09912109,-1.46484375,2.06E+08
192.168.43.159,0.063476563,-0.226074219,1.008300781,-3.601074219,14.16015625,-2.502441406,2.06E+08
192.168.43.159,0.063476563,-0.238769531,0.979492188,-4.211425781,13.671875,-4.272460938,2.06E+08
192.168.43.159,0.078613281,-0.262695313,0.979003906,-1.708984375,13.91601563,-4.760742188,2.06E+08
192.168.43.159,0.083496094,-0.208496094,0.991210938,-0.732421875,16.6015625,-3.662109375,2.06E+08
192.168.43.159,0.057128906,-0.2578125,0.976074219,-7.080078125,17.15087891,-2.868652344,2.06E+08
192.168.43.159,0.032714844,-0.229492188,0.965820313,-2.990722656,13.671875,-2.990722656,2.06E+08
192.168.43.159,0.020507813,-0.228515625,1.001464844,-3.845214844,13.24462891,-1.159667969,2.06E+08
192.168.43.159,0.006835938,-0.250488281,0.993164063,-2.990722656,10.62011719,-1.281738281,2.06E+08
192.168.43.159,0.004394531,-0.226074219,0.982421875,-1.892089844,9.460449219,-0.854492188,2.06E+08
192.168.43.159,0.008789063,-0.21875,1.000488281,-1.281738281,7.751464844,-1.098632813,2.06E+08
192.168.43.159,0.032714844,-0.211914063,0.994140625,-0.366210938,2.746582031,-1.892089844,2.06E+08
192.168.43.159,0.039550781,-0.238769531,0.975097656,-1.098632813,2.807617188,-0.915527344,2.06E+08
192.168.43.159,0.046875,-0.237792969,0.989257813,0.244140625,3.479003906,-0.732421875,2.06E+08
192.168.43.159,0.060058594,-0.245605469,1.000976563,-0.793457031,3.90625,-1.098632813,2.06E+08
192.168.43.159,0.044921875,-0.272949219,0.974121094,-1.342773438,3.90625,-1.525878906,2.06E+08
192.168.43.159,0.078613281,-0.262207031,0.981445313,-3.90625,4.760742188,-1.281738281,2.06E+08
192.168.43.159,0.040527344,-0.224121094,0.986328125,-0.9765625,6.958007813,-2.746582031,2.06E+08
192.168.43.159,0.0234375,-0.237792969,0.976074219,-1.647949219,10.25390625,-0.549316406,2.06E+08
192.168.43.159,0.018066406,-0.236328125,1.000488281,-1.159667969,10.00976563,0.915527344,2.06E+08
192.168.43.159,-0.004394531,-0.247558594,0.981933594,-0.915527344,9.155273438,0.48828125,2.06E+08
192.168.43.159,-0.020019531,-0.237792969,0.984863281,0.671386719,8.30078125,-1.46484375,2.06E+08
192.168.43.159,-4.88E-04,-0.236328125,0.999023438,-0.305175781,4.699707031,-2.380371094,2.06E+08
192.168.43.159,0.028320313,-0.244140625,0.991210938,-1.281738281,4.089355469,-0.915527344,2.06E+08
192.168.43.159,0.02734375,-0.2421875,0.983398438,-0.9765625,4.699707031,-0.48828125,2.06E+08
192.168.43.159,0.018066406,-0.244140625,0.985351563,-0.9765625,4.577636719,-0.48828125,2.06E+08
192.168.43.159,0.020019531,-0.243164063,0.990234375,-0.244140625,3.967285156,-1.220703125,2.06E+08
192.168.43.159,0.014160156,-0.259765625,0.99609375,-0.48828125,5.920410156,-1.708984375,2.06E+08
192.168.43.159,0.005859375,-0.26171875,0.985839844,-0.854492188,7.934570313,-2.075195313,2.06E+08
192.168.43.159,0.008300781,-0.247070313,0.983398438,-0.549316406,7.629394531,-2.44140625,2.06E+08
192.168.43.159,0.009277344,-0.241699219,0.985351563,-0.610351563,7.263183594,-2.624511719,2.06E+08
192.168.43.159,-0.006347656,-0.255859375,0.98828125,-0.427246094,8.056640625,-3.723144531,2.06E+08
192.168.43.159,-0.007324219,-0.271484375,0.981933594,0.244140625,6.774902344,-4.760742188,2.06E+08
192.168.43.159,0.010253906,-0.251953125,0.989257813,0.915527344,5.310058594,-4.455566406,2.06E+08
192.168.43.159,0.02734375,-0.245605469,0.989746094,-0.793457031,5.432128906,-3.112792969,2.06E+08
192.168.43.159,0.005859375,-0.250488281,0.987304688,-2.136230469,7.202148438,-1.770019531,2.06E+08
192.168.43.159,-0.023925781,-0.247558594,0.989746094,-2.197265625,9.27734375,-1.953125,2.06E+08
192.168.43.159,-0.024414063,-0.252929688,0.983886719,-1.953125,8.7890625,-3.723144531,2.06E+08
192.168.43.159,-0.020019531,-0.264160156,0.983398438,-1.403808594,8.850097656,-5.065917969,2.06E+08
192.168.43.159,-0.00390625,-0.261230469,0.994628906,-0.549316406,9.338378906,-5.981445313,2.06E+08
192.168.43.159,0.017578125,-0.257324219,0.986328125,-0.366210938,9.033203125,-5.310058594,2.06E+08
192.168.43.159,0.006347656,-0.264160156,0.975097656,-0.244140625,11.29150391,-3.723144531,2.06E+08
192.168.43.159,-0.020507813,-0.274902344,0.961425781,0.9765625,11.65771484,-2.868652344,2.06E+08
192.168.43.159,-0.011230469,-0.280273438,0.994140625,1.281738281,11.04736328,-1.892089844,2.06E+08
192.168.43.159,-0.038574219,-0.263671875,0.998046875,4.516601563,13.30566406,-1.037597656,2.06E+08
192.168.43.159,-0.060546875,-0.234375,0.979492188,4.638671875,10.49804688,-2.746582031,2.06E+08
192.168.43.159,-0.038085938,-0.234863281,0.979980469,1.281738281,7.995605469,-2.624511719,2.06E+08
192.168.43.159,-0.026855469,-0.25,0.989746094,-0.732421875,8.666992188,-1.281738281,2.06E+08
192.168.43.159,-0.029785156,-0.239257813,0.99609375,0.061035156,9.704589844,-0.854492188,2.07E+08
192.168.43.159,-0.033203125,-0.248046875,0.993164063,3.234863281,9.155273438,-0.732421875,2.07E+08
192.168.43.159,-0.033203125,-0.220214844,0.992675781,6.34765625,7.934570313,0.610351563,2.07E+08
192.168.43.159,-0.062011719,-0.228515625,0.970703125,1.037597656,8.850097656,-0.9765625,2.07E+08
192.168.43.159,-0.056152344,-0.250488281,0.989257813,-1.46484375,10.49804688,-2.319335938,2.07E+08
192.168.43.159,-0.089355469,-0.252929688,0.978515625,-0.671386719,11.59667969,-3.90625,2.07E+08
192.168.43.159,-0.077148438,-0.254394531,0.976074219,0.671386719,10.19287109,-5.493164063,2.07E+08
192.168.43.159,-0.052734375,-0.256835938,0.997070313,0.610351563,8.850097656,-5.432128906,2.07E+08
192.168.43.159,-0.047363281,-0.256835938,0.981445313,0.305175781,7.629394531,-4.333496094,2.07E+08
192.168.43.159,-0.036621094,-0.244140625,0.98828125,-0.183105469,7.751464844,-2.380371094,2.07E+08
192.168.43.159,-0.044921875,-0.237792969,1.002929688,-0.549316406,8.361816406,-1.220703125,2.07E+08
192.168.43.159,-0.078125,-0.232421875,0.990234375,-0.48828125,9.033203125,-1.770019531,2.07E+08
192.168.43.159,-0.092285156,-0.229980469,0.989257813,-0.732421875,8.666992188,-2.502441406,2.07E+08
192.168.43.159,-0.098632813,-0.242675781,0.986328125,-1.220703125,7.873535156,-3.112792969,2.07E+08
192.168.43.159,-0.102050781,-0.254394531,0.984863281,-1.342773438,6.774902344,-3.540039063,2.07E+08
192.168.43.159,-0.1015625,-0.258300781,0.973632813,-0.9765625,4.39453125,-2.807617188,2.07E+08
192.168.43.159,-0.0859375,-0.270019531,0.967773438,-0.48828125,2.624511719,-2.014160156,2.07E+08
192.168.43.159,-0.087890625,-0.272949219,0.982421875,-0.549316406,3.41796875,-2.563476563,2.07E+08
192.168.43.159,-0.093261719,-0.262207031,0.978027344,-0.610351563,4.150390625,-3.356933594,2.07E+08
192.168.43.159,-0.07421875,-0.252929688,0.981445313,-1.037597656,3.723144531,-3.112792969,2.07E+08
192.168.43.159,-0.070800781,-0.250488281,0.983886719,-0.732421875,2.868652344,-3.051757813,2.07E+08
192.168.43.159,-0.091308594,-0.249511719,0.985839844,0.061035156,1.098632813,-3.479003906,2.07E+08
192.168.43.159,-0.119628906,-0.252929688,0.979003906,-0.427246094,1.220703125,-3.845214844,2.07E+08
192.168.43.159,-0.115722656,-0.251953125,0.989257813,-0.9765625,1.525878906,-4.577636719,2.07E+08
192.168.43.159,-0.080566406,-0.255859375,0.983398438,-1.098632813,0.549316406,-4.8828125,2.07E+08
192.168.43.159,-0.049316406,-0.262207031,0.973632813,-0.9765625,0.427246094,-3.784179688,2.07E+08
192.168.43.159,-0.050292969,-0.262695313,0.977050781,-0.732421875,1.098632813,-2.44140625,2.07E+08
192.168.43.159,-0.067871094,-0.255859375,0.983886719,-0.244140625,1.647949219,-1.831054688,2.07E+08
192.168.43.159,-0.09375,-0.260253906,0.972167969,-0.183105469,1.159667969,-1.708984375,2.07E+08
192.168.43.159,-0.103515625,-0.271972656,0.980957031,0.061035156,-0.549316406,-1.46484375,2.07E+08
192.168.43.159,-0.103027344,-0.269042969,0.98046875,1.098632813,-0.9765625,-1.037597656,2.07E+08
192.168.43.159,-0.072753906,-0.255859375,0.974121094,2.258300781,-3.051757813,-1.708984375,2.07E+08
192.168.43.159,-0.052246094,-0.245605469,0.984375,1.159667969,-0.610351563,-1.281738281,2.07E+08
192.168.43.159,-0.053222656,-0.240722656,0.985839844,0,-0.854492188,-0.48828125,2.07E+08
192.168.43.159,-0.065429688,-0.249511719,0.980957031,-0.732421875,-2.9296875,0.732421875,2.07E+08
192.168.43.159,-0.083007813,-0.261230469,0.980957031,-0.671386719,-4.516601563,1.708984375,2.07E+08
192.168.43.159,-0.093261719,-0.263671875,0.981445313,-0.427246094,-5.981445313,2.258300781,2.07E+08
192.168.43.159,-0.0859375,-0.260742188,0.98046875,0.244140625,-7.568359375,1.770019531,2.07E+08
192.168.43.159,-0.083984375,-0.263671875,0.978027344,0.48828125,-5.432128906,1.647949219,2.07E+08
192.168.43.159,-0.076171875,-0.2578125,0.979980469,0.9765625,-7.507324219,1.525878906,2.07E+08
192.168.43.159,-0.0625,-0.255371094,0.983398438,1.159667969,-9.033203125,2.258300781,2.07E+08
192.168.43.159,-0.057128906,-0.256835938,0.983398438,1.098632813,-9.155273438,2.868652344,2.07E+08
192.168.43.159,-0.076171875,-0.264648438,0.983886719,1.708984375,-10.7421875,2.563476563,2.07E+08
192.168.43.159,-0.077148438,-0.268554688,0.982910156,2.258300781,-12.02392578,2.624511719,2.07E+08
192.168.43.159,-0.073730469,-0.262207031,0.977050781,2.685546875,-12.63427734,2.685546875,2.07E+08
192.168.43.159,-0.057617188,-0.250976563,0.988769531,2.990722656,-13.18359375,2.258300781,2.07E+08
192.168.43.159,-0.035644531,-0.253417969,0.994628906,3.112792969,-13.42773438,1.770019531,2.07E+08
192.168.43.159,-0.035644531,-0.260253906,0.981933594,3.051757813,-12.39013672,1.46484375,2.07E+08
192.168.43.159,-0.043457031,-0.262695313,0.98828125,3.479003906,-13.18359375,1.831054688,2.07E+08
192.168.43.159,-0.045898438,-0.256835938,0.985839844,4.150390625,-14.77050781,2.746582031,2.07E+08
192.168.43.159,-0.03515625,-0.24609375,0.987792969,4.455566406,-14.22119141,2.807617188,2.08E+08
192.168.43.159,-0.015625,-0.244140625,0.9921875,4.028320313,-13.91601563,2.075195313,2.08E+08
192.168.43.159,-0.013671875,-0.25,0.991210938,3.601074219,-12.02392578,1.403808594,2.08E+08
192.168.43.159,-0.0078125,-0.24609375,0.9921875,4.028320313,-12.14599609,1.770019531,2.08E+08
192.168.43.159,-0.00390625,-0.240722656,0.997558594,3.662109375,-10.31494141,1.770019531,2.08E+08
192.168.43.159,0.001464844,-0.236328125,0.993652344,2.502441406,-9.216308594,0.48828125,2.08E+08
192.168.43.159,-4.88E-04,-0.245605469,0.9921875,1.831054688,-6.34765625,-0.305175781,2.08E+08
192.168.43.159,-0.009765625,-0.245605469,0.993652344,1.647949219,-6.713867188,-0.183105469,2.08E+08
192.168.43.159,-0.009277344,-0.234375,0.995117188,1.342773438,-7.751464844,-0.122070313,2.08E+08
192.168.43.159,-0.003417969,-0.232910156,0.998046875,0.366210938,-4.760742188,-0.854492188,2.08E+08
192.168.43.159,-0.006347656,-0.232910156,0.991210938,-0.122070313,-2.319335938,-1.892089844,2.08E+08
192.168.43.159,-0.01171875,-0.240722656,0.992675781,-0.183105469,-2.197265625,-2.197265625,2.08E+08
192.168.43.159,-0.015625,-0.239257813,0.987792969,0.122070313,-2.807617188,-1.770019531,2.08E+08
192.168.43.159,0.003417969,-0.234375,0.998046875,0.366210938,-2.319335938,-1.708984375,2.08E+08
192.168.43.159,-9.77E-04,-0.244628906,0.992675781,0.061035156,-0.854492188,-2.197265625,2.08E+08
192.168.43.159,-0.00390625,-0.252441406,0.984863281,0.305175781,-1.220703125,-1.953125,2.08E+08
192.168.43.159,-0.008789063,-0.244628906,0.985839844,1.220703125,-1.342773438,-1.708984375,2.08E+08
192.168.43.159,-0.006347656,-0.237304688,0.994140625,0.854492188,-1.708984375,-2.075195313,2.08E+08
192.168.43.159,0.008300781,-0.240234375,0.994628906,0.427246094,-2.624511719,-2.563476563,2.08E+08
192.168.43.159,0,-0.247558594,0.987304688,0.915527344,-0.244140625,-2.380371094,2.08E+08
192.168.43.159,-0.007324219,-0.243652344,0.987304688,1.037597656,-1.037597656,-1.953125,2.08E+08
192.168.43.159,0.006835938,-0.237792969,1.002441406,1.098632813,-2.197265625,-1.892089844,2.08E+08
192.168.43.159,-0.005371094,-0.245605469,0.987792969,0.9765625,-0.244140625,-2.746582031,2.08E+08
192.168.43.159,0.004394531,-0.244140625,0.987792969,1.098632813,0.061035156,-2.685546875,2.08E+08
192.168.43.159,0.008300781,-0.244628906,0.984863281,1.892089844,-0.366210938,-2.380371094,2.08E+08
192.168.43.159,0.012207031,-0.235839844,0.993652344,2.136230469,-0.122070313,-2.44140625,2.08E+08
192.168.43.159,0,-0.231933594,0.999511719,1.953125,0,-2.868652344,2.08E+08
192.168.43.159,0.013671875,-0.231933594,0.993652344,1.953125,1.037597656,-2.624511719,2.08E+08
192.168.43.159,0.0078125,-0.23046875,0.987304688,2.014160156,3.356933594,-1.770019531,2.08E+08
192.168.43.159,0.01171875,-0.226074219,0.994140625,2.075195313,2.9296875,-0.854492188,2.08E+08
192.168.43.159,-0.01171875,-0.225097656,0.995117188,2.075195313,2.807617188,-0.793457031,2.08E+08
192.168.43.159,-0.006347656,-0.227539063,1.008300781,1.220703125,2.624511719,-1.098632813,2.08E+08
192.168.43.159,-0.007324219,-0.233886719,0.997558594,0.915527344,4.39453125,-1.831054688,2.08E+08
192.168.43.159,0.006347656,-0.2265625,0.990234375,1.098632813,5.615234375,-1.831054688,2.08E+08
192.168.43.159,-0.00390625,-0.215332031,0.995605469,0.549316406,3.967285156,-1.770019531,2.08E+08
192.168.43.159,-0.007324219,-0.2265625,1.00390625,0.061035156,2.502441406,-1.281738281,2.08E+08
192.168.43.159,-0.027832031,-0.240234375,0.986816406,0.305175781,3.41796875,-0.793457031,2.08E+08
192.168.43.159,-0.019042969,-0.234863281,0.995605469,0.854492188,3.479003906,-0.9765625,2.08E+08
192.168.43.159,-0.012207031,-0.23046875,0.994140625,1.159667969,3.601074219,-1.46484375,2.08E+08
192.168.43.159,-0.009277344,-0.237792969,0.991699219,0.793457031,3.112792969,-1.831054688,2.08E+08
192.168.43.159,-0.014160156,-0.241210938,0.987792969,1.159667969,2.197265625,-1.403808594,2.08E+08
192.168.43.159,-0.00390625,-0.23828125,0.987304688,1.770019531,2.136230469,-1.159667969,2.08E+08
192.168.43.159,0,-0.237304688,0.985839844,1.953125,2.624511719,-1.403808594,2.08E+08
192.168.43.159,-0.01171875,-0.241699219,0.994140625,2.258300781,1.953125,-1.159667969,2.08E+08
192.168.43.159,-0.017089844,-0.244628906,0.990722656,2.746582031,0.854492188,-0.549316406,2.08E+08
192.168.43.159,0.001953125,-0.224121094,1.001953125,2.9296875,-0.183105469,-0.793457031,2.08E+08
192.168.43.159,0.012695313,-0.220703125,1.003417969,2.136230469,3.845214844,-2.197265625,2.08E+08
192.168.43.159,-0.001464844,-0.229492188,0.997558594,1.647949219,5.615234375,-2.624511719,2.08E+08
192.168.43.159,-0.022460938,-0.232910156,1.001953125,2.319335938,5.432128906,-1.46484375,2.08E+08
192.168.43.159,-0.019042969,-0.23046875,0.986816406,3.234863281,4.028320313,0,2.08E+08
192.168.43.159,-0.005859375,-0.219726563,1.0078125,3.356933594,5.004882813,-1.037597656,2.09E+08
192.168.43.159,-0.026367188,-0.216308594,1.006347656,2.075195313,8.117675781,-2.807617188,2.09E+08
192.168.43.159,-0.049316406,-0.237304688,0.977050781,1.037597656,6.286621094,-2.624511719,2.09E+08
192.168.43.159,-0.028808594,-0.234863281,0.979492188,1.342773438,1.586914063,-0.9765625,2.09E+08
192.168.43.159,-0.017578125,-0.221191406,0.994628906,1.708984375,0.732421875,-0.732421875,2.09E+08
192.168.43.159,-0.024902344,-0.220214844,0.991699219,0.854492188,0.244140625,-1.708984375,2.09E+08
192.168.43.159,-0.025878906,-0.215332031,0.990722656,0.061035156,-0.671386719,-2.258300781,2.09E+08
192.168.43.159,-0.038574219,-0.216308594,1.018554688,-0.305175781,-0.793457031,-2.502441406,2.09E+08
192.168.43.159,-0.0234375,-0.224609375,1.0078125,-0.549316406,-0.610351563,-2.319335938,2.09E+08
192.168.43.159,0.001464844,-0.216308594,1.005859375,-0.610351563,0.671386719,-2.075195313,2.09E+08
192.168.43.159,-0.004394531,-0.225097656,1.003417969,-0.671386719,2.563476563,-2.197265625,2.09E+08
192.168.43.159,-0.026855469,-0.231933594,0.979980469,-0.549316406,3.662109375,-2.136230469,2.09E+08
192.168.43.159,-0.00390625,-0.210449219,0.984375,-0.854492188,1.586914063,-1.586914063,2.09E+08
192.168.43.159,9.77E-04,-0.221679688,1.000488281,-1.892089844,2.624511719,-2.990722656,2.09E+08
192.168.43.159,-0.047363281,-0.229003906,0.997558594,-2.075195313,4.028320313,-3.41796875,2.09E+08
192.168.43.159,-0.058105469,-0.236328125,1.007324219,-1.892089844,1.46484375,-2.258300781,2.09E+08
192.168.43.159,-0.037109375,-0.245117188,0.998046875,-1.037597656,0.061035156,-1.037597656,2.09E+08
192.168.43.159,-0.023925781,-0.241210938,0.98828125,0.305175781,1.46484375,-0.854492188,2.09E+08
192.168.43.159,-0.021972656,-0.212402344,1.000488281,0.610351563,1.46484375,-1.342773438,2.09E+08
192.168.43.159,-0.0234375,-0.221679688,0.993164063,-0.48828125,-0.305175781,-1.403808594,2.09E+08
192.168.43.159,-0.032714844,-0.232910156,0.990234375,-0.793457031,-1.037597656,-1.159667969,2.09E+08
192.168.43.159,-0.0234375,-0.239257813,1.008300781,-0.610351563,-1.46484375,-0.549316406,2.09E+08
192.168.43.159,-0.009765625,-0.227539063,0.995605469,0.061035156,1.159667969,-0.854492188,2.09E+08
192.168.43.159,0.002441406,-0.219238281,0.988769531,-0.366210938,2.685546875,-1.220703125,2.09E+08
192.168.43.159,-0.009277344,-0.232910156,0.994140625,-0.854492188,1.831054688,-0.732421875,2.09E+08
192.168.43.159,-0.03515625,-0.241699219,1.000976563,-0.244140625,1.403808594,0,2.09E+08
192.168.43.159,-0.03125,-0.232421875,0.994628906,0.183105469,1.281738281,0.244140625,2.09E+08
192.168.43.159,-0.024414063,-0.22265625,0.998535156,-0.427246094,2.075195313,-0.610351563,2.09E+08
192.168.43.159,-0.0390625,-0.240722656,0.996582031,-0.915527344,2.075195313,-1.220703125,2.09E+08
192.168.43.159,-0.050292969,-0.251464844,0.990722656,0.061035156,0.48828125,-0.48828125,2.09E+08
192.168.43.159,-0.037597656,-0.235839844,0.990234375,1.220703125,-0.854492188,0.244140625,2.09E+08
192.168.43.159,-0.021972656,-0.224609375,0.999023438,0.9765625,-0.427246094,-0.244140625,2.09E+08
192.168.43.159,-0.016601563,-0.233398438,0.993164063,0.427246094,0.183105469,-0.732421875,2.09E+08
192.168.43.159,-0.027832031,-0.234375,0.991699219,0.732421875,-1.342773438,-0.122070313,2.09E+08
192.168.43.159,-0.035644531,-0.232421875,0.99609375,0.732421875,-2.807617188,0.183105469,2.09E+08
192.168.43.159,-0.032226563,-0.237792969,1.00390625,0.305175781,-1.953125,-0.427246094,2.09E+08
192.168.43.159,-0.020507813,-0.23828125,0.989746094,0.427246094,-1.098632813,-0.793457031,2.09E+08
192.168.43.159,-0.010742188,-0.224121094,0.996582031,0.793457031,-1.159667969,-0.48828125,2.09E+08
192.168.43.159,-0.026367188,-0.222167969,1.002929688,0.427246094,-1.586914063,-0.366210938,2.09E+08
192.168.43.159,-0.042480469,-0.232910156,0.9921875,-0.122070313,-2.380371094,-0.122070313,2.09E+08
192.168.43.159,-0.039550781,-0.232910156,0.991699219,0,-2.685546875,-0.305175781,2.09E+08
192.168.43.159,-0.0234375,-0.230957031,1.0078125,-0.244140625,-2.136230469,-1.037597656,2.09E+08
192.168.43.159,-0.015136719,-0.234863281,1.002441406,-0.183105469,-0.671386719,-1.46484375,2.09E+08
192.168.43.159,-0.013183594,-0.234375,1.005859375,0.122070313,1.403808594,-1.770019531,2.09E+08
192.168.43.159,-0.021972656,-0.229492188,1.005371094,0.427246094,3.662109375,-2.075195313,2.09E+08
192.168.43.159,-0.025390625,-0.228027344,0.993164063,0.427246094,5.065917969,-2.44140625,2.09E+08
192.168.43.159,-0.025390625,-0.23046875,0.9921875,0.183105469,5.065917969,-2.9296875,2.09E+08
192.168.43.159,-0.024902344,-0.236816406,1.001464844,0.061035156,5.981445313,-3.723144531,2.09E+08
192.168.43.159,-0.024414063,-0.233398438,1.014160156,-0.305175781,8.178710938,-4.577636719,2.09E+08
192.168.43.159,-0.021972656,-0.233398438,1.008300781,-0.427246094,10.92529297,-5.249023438,2.09E+08
192.168.43.159,-0.027832031,-0.233398438,0.996582031,-0.244140625,12.87841797,-5.249023438,2.10E+08
192.168.43.159,-0.043945313,-0.235351563,0.993652344,-0.48828125,12.6953125,-4.821777344,2.10E+08
192.168.43.159,-0.040527344,-0.236328125,0.994628906,-1.281738281,11.29150391,-4.8828125,2.10E+08
192.168.43.159,-0.050292969,-0.239746094,0.972167969,-1.708984375,9.094238281,-4.943847656,2.10E+08
192.168.43.159,-0.100097656,-0.246582031,0.946777344,-2.075195313,3.234863281,-4.39453125,2.10E+08
192.168.43.159,-0.062988281,-0.263671875,0.986328125,-4.028320313,-9.460449219,-1.46484375,2.10E+08
192.168.43.159,0.002929688,-0.249511719,1.004394531,-1.708984375,-11.90185547,-0.305175781,2.10E+08
192.168.43.159,9.77E-04,-0.234375,0.998046875,-0.061035156,-7.507324219,-1.403808594,2.10E+08
192.168.43.159,-0.01953125,-0.230957031,0.995117188,0.061035156,-5.676269531,-1.525878906,2.10E+08
192.168.43.159,-0.012207031,-0.237792969,0.982910156,-0.061035156,-6.164550781,-0.549316406,2.10E+08
192.168.43.159,-0.008789063,-0.245117188,0.984863281,0,-5.310058594,-0.549316406,2.10E+08
192.168.43.159,-0.012207031,-0.249511719,0.99609375,0.183105469,-3.784179688,-1.098632813,2.10E+08
192.168.43.159,-0.018066406,-0.25390625,0.989746094,-0.244140625,-2.624511719,-0.9765625,2.10E+08
192.168.43.159,-0.021972656,-0.259277344,0.9765625,-0.366210938,-3.234863281,-0.48828125,2.10E+08
192.168.43.159,-0.028320313,-0.245605469,0.984863281,0.366210938,-3.356933594,-0.061035156,2.10E+08
192.168.43.159,-0.009277344,-0.237304688,0.98828125,0.061035156,-4.516601563,0.183105469,2.10E+08
192.168.43.159,-0.001464844,-0.248046875,0.981933594,-0.305175781,-4.150390625,-0.244140625,2.10E+08
192.168.43.159,-0.001953125,-0.259765625,0.983886719,0.122070313,-3.601074219,-0.48828125,2.10E+08
192.168.43.159,0.001953125,-0.260253906,0.98828125,0.610351563,-2.685546875,0.122070313,2.10E+08
192.168.43.159,-0.006835938,-0.260742188,0.979492188,0.305175781,-2.075195313,0.183105469,2.10E+08
192.168.43.159,-0.013671875,-0.268066406,0.973632813,0.793457031,-1.770019531,0.183105469,2.10E+08
192.168.43.159,-0.012695313,-0.25390625,0.983398438,1.770019531,-2.075195313,0.854492188,2.10E+08
192.168.43.159,-0.01171875,-0.250976563,0.985839844,2.014160156,-3.295898438,1.403808594,2.10E+08
192.168.43.159,-0.001464844,-0.244628906,0.998535156,1.892089844,-3.845214844,1.953125,2.10E+08
192.168.43.159,-0.00390625,-0.237304688,0.993164063,1.46484375,-3.540039063,2.624511719,2.10E+08
192.168.43.159,-0.006835938,-0.234863281,0.993652344,0.9765625,-3.234863281,2.624511719,2.10E+08
192.168.43.159,-0.0078125,-0.237792969,0.998535156,0.244140625,-2.44140625,1.525878906,2.10E+08
192.168.43.159,-0.005371094,-0.238769531,0.993164063,-0.122070313,-1.770019531,0.793457031,2.10E+08
192.168.43.159,-0.009277344,-0.246582031,0.991210938,-0.610351563,-1.953125,0.732421875,2.10E+08
192.168.43.159,-0.002929688,-0.252929688,0.989746094,-0.671386719,-2.990722656,1.342773438,2.10E+08
192.168.43.159,-0.003417969,-0.244140625,0.986328125,-0.366210938,-3.41796875,2.197265625,2.10E+08
192.168.43.159,-0.005371094,-0.241699219,0.989746094,-0.427246094,-3.845214844,2.502441406,2.10E+08
192.168.43.159,-0.006347656,-0.249023438,0.982910156,-0.610351563,-4.028320313,2.014160156,2.10E+08
192.168.43.159,0.002441406,-0.253417969,0.995117188,-0.854492188,-3.845214844,1.586914063,2.10E+08
192.168.43.159,0.001953125,-0.248535156,0.99609375,-0.732421875,-2.136230469,0.793457031,2.10E+08
192.168.43.159,0.002441406,-0.243164063,0.991210938,-0.793457031,-2.319335938,0.671386719,2.10E+08
192.168.43.159,0.009765625,-0.241699219,0.989746094,-0.793457031,-2.380371094,1.098632813,2.10E+08
192.168.43.159,0.017089844,-0.252929688,0.989257813,-0.9765625,-2.624511719,1.403808594,2.10E+08
192.168.43.159,0.010253906,-0.249511719,0.991699219,-0.793457031,-2.197265625,1.647949219,2.10E+08
192.168.43.159,-9.77E-04,-0.252929688,0.990234375,-0.610351563,-1.770019531,1.525878906,2.10E+08
192.168.43.159,-0.009765625,-0.26171875,0.986328125,-0.183105469,-1.892089844,1.281738281,2.10E+08
192.168.43.159,-0.005859375,-0.254882813,0.986816406,0.183105469,-2.197265625,1.220703125,2.10E+08
192.168.43.159,-0.005859375,-0.2578125,0.989257813,0.061035156,-2.746582031,0.610351563,2.10E+08
192.168.43.159,0.001464844,-0.256347656,0.984863281,0.427246094,-3.295898438,0.366210938,2.10E+08
192.168.43.159,0.0078125,-0.264648438,0.986328125,0.244140625,-3.662109375,0.427246094,2.10E+08
192.168.43.159,0.005859375,-0.260742188,0.987792969,0.244140625,-3.173828125,0.244140625,2.10E+08
192.168.43.159,0.002441406,-0.257324219,0.984375,0.366210938,-2.685546875,0.244140625,2.10E+08
192.168.43.159,9.77E-04,-0.260742188,0.982910156,0.366210938,-2.319335938,0.183105469,2.10E+08
192.168.43.159,0.003417969,-0.262207031,0.991210938,-0.061035156,-2.136230469,0.061035156,2.10E+08
192.168.43.159,0.008300781,-0.253417969,0.990234375,-0.549316406,-1.342773438,-0.549316406,2.11E+08
192.168.43.159,0.005371094,-0.249023438,0.989257813,-0.854492188,-1.953125,-0.549316406,2.11E+08
192.168.43.159,0.015625,-0.252441406,0.987304688,-0.48828125,-2.807617188,-0.244140625,2.11E+08
192.168.43.159,0.0234375,-0.249511719,0.990234375,-0.244140625,-2.685546875,-0.244140625,2.11E+08
192.168.43.159,0.022460938,-0.248046875,0.989746094,-0.48828125,-2.44140625,-0.427246094,2.11E+08
192.168.43.159,0.017089844,-0.248535156,0.989257813,-0.183105469,-3.173828125,-0.183105469,2.11E+08
192.168.43.159,0.01171875,-0.249511719,0.995117188,-0.122070313,-3.845214844,0,2.11E+08
192.168.43.159,9.77E-04,-0.250976563,0.992675781,-0.122070313,-4.211425781,0,2.11E+08
192.168.43.159,-0.002441406,-0.250488281,0.994140625,-0.366210938,-4.821777344,-0.793457031,2.11E+08
192.168.43.159,0,-0.249511719,1.001953125,-0.610351563,-5.859375,-1.220703125,2.11E+08
192.168.43.159,-0.006347656,-0.255859375,0.98828125,-0.732421875,-6.469726563,-1.892089844,2.11E+08
192.168.43.159,-0.002441406,-0.259277344,0.983398438,-0.366210938,-7.446289063,-2.502441406,2.11E+08
192.168.43.159,0.014648438,-0.261230469,0.983886719,-0.366210938,-8.422851563,-2.807617188,2.11E+08
192.168.43.159,0.036621094,-0.287109375,0.978027344,-0.610351563,-9.27734375,-3.234863281,2.11E+08
192.168.43.159,0.063476563,-0.257324219,0.979980469,-0.915527344,-8.605957031,-1.403808594,2.11E+08
192.168.43.159,0.063964844,-0.258789063,0.985351563,-1.037597656,-7.385253906,-2.685546875,2.11E+08
192.168.43.159,0.069824219,-0.261230469,0.985351563,-0.915527344,-6.34765625,-3.479003906,2.11E+08
192.168.43.159,0.059570313,-0.256347656,0.982421875,-0.427246094,-4.821777344,-3.173828125,2.11E+08